Frame,Sub Frame,ACCX1,ACCY1,ACCZ1,GYROX1,GYROY1,GYROZ1,ACCX2,ACCY2,ACCZ2,GYROX2,GYROY2,GYROZ2
1,0,5019.44,1594.54,-3848.68,-9.26829,37.4848,-47.9726,4768.05,2073.38,-3830.72,2.53051,25.1372,-46.1738
1,1,5656.3,2014.72,-3439.27,-11.5701,26.8293,-49.1768,4950.01,2213.44,-3530.25,-0.304877,19.9238,-45.3659
2,0,6640.32,2631.23,-2896.99,-10.7774,17.1037,-52.2714,6130.35,2806,-2813.19,0.762191,8.04882,-49.7104
2,1,8008.6,3354.27,-2519.9,-9.81708,9.14636,-55.8079,6786.36,3248.93,-2528.28,1.79878,2.68293,-52.0579
3,0,9556.45,4009.09,-2140.42,-11.0976,3.96343,-57.1189,9009.37,4359.84,-2103.31,1.46342,-5.82315,-56.0823
3,1,10840.9,3910.93,-2039.86,-13.0488,3.00305,-56.1128,10000.6,4835.09,-1867.48,1.0061,-9.02439,-56.7683
4,0,12003.3,4368.22,-944.516,-19.2073,12.4695,-59.5275,11652.6,4829.1,-580.598,-7.13412,1.85972,-59.0549
4,1,12320.6,5033.81,-184.355,-19.5427,17.622,-53.4757,12233.2,5153.52,-51.4757,-8.44513,5.73171,-58.4147
5,0,12348.1,5163.1,248.996,-24.878,21.128,-28.5824,11962.6,5780.8,506.372,-14.2988,8.44512,-27.058
5,1,12375.6,4638.77,834.378,-30.5793,25.8232,1.63103,11941.1,5779.6,881.066,-18.9634,10.2896,-3.78053
6,0,12016.5,3602.08,1013.94,-32.9268,33.8415,26.814,11768.7,3998.32,994.791,-22.2409,19.2073,29.314
6,1,11398.8,2365.47,890.643,-32.0579,43.8262,42.6982,11684.9,3129.22,1017.54,-22.8659,24.1311,42.2866
7,0,10447.1,1237.8,757.765,-28.4451,50.9299,47.1342,10335.8,1278.51,833.183,-19.4665,34.878,50.3201
7,1,9024.95,328.007,623.69,-16.997,52.3933,42.1952,9593.57,385.467,767.342,-16.5244,38.689,51.433
8,0,7445.97,-57.4604,226.253,-0.868934,47.9421,28.8568,7592.02,-345.961,345.963,3.33837,36.0519,37.3629
8,1,5820.31,-14.3655,-433.349,12.0884,38.5976,9.40553,6630.74,-462.081,90.9799,15.3354,32.3323,24.7561
9,0,4322.73,381.874,-1022.32,17.6524,31.1281,-2.01218,4234.15,-14.3662,-884.655,27.4847,18.7348,-0.426779
9,1,3277.66,1023.52,-1406.59,26.9055,15.8842,-9.25304,3141.19,318.428,-1204.28,32.0579,11.6768,-9.84756
10,0,2755.73,1136.05,-1754.95,35.2744,-1.96643,-5.57928,2011.13,1259.35,-1928.53,44.8323,-13.3688,-4.17685
10,1,2603.69,1000.78,-2260.13,29.3598,-17.4695,4.77132,1552.64,1533.49,-2280.48,47.1799,-24.0092,0.350604
11,0,3652.35,1203.09,-2585.74,16.0214,-29.6189,13.8415,3265.69,1865.08,-2709.04,28.2927,-41.4329,14.192
11,1,5548.56,1707.06,-2464.83,8.82623,-38.1098,19.3445,4805.16,1963.25,-2598.91,20.7775,-47.9116,19.5427
12,0,7487.86,2153.58,-2256.54,9.49695,-47.2713,26.5244,7052.12,2497.15,-2245.76,23.2317,-57.8354,26.7835
12,1,9654.61,2639.61,-2024.3,9.84757,-56.3262,32.3781,8057.69,2773.68,-2108.09,24.5275,-63.186,30.6403
13,0,12147,3252.52,-1611.3,8.84147,-58.8567,31.9208,11909.9,3728.97,-1561.02,22.9421,-70.4878,32.5762
13,1,14560.3,3798.4,-1059.44,7.62196,-52.8811,24.8019,13692.4,4158.73,-1322.8,22.4238,-71.4939,31.9512
14,0,16533.2,4037.82,-300.474,6.58537,-46.2805,18.8262,16393.1,4666.3,-483.631,19.4665,-55.8232,18.5061
14,1,17730.3,4074.93,403.422,2.86586,-31.7226,11.2043,17797.3,4944.03,29.9269,17.3323,-47.4848,12.3171
15,0,18083.4,4056.97,713.472,-3.68902,-10.7317,8.44513,18523.9,5038.6,652.419,8.30795,-22.6677,9.6494
15,1,18212.7,3896.56,883.46,-12.3018,12.9725,10.3354,18692.7,5063.74,815.226,3.41464,-9.95428,10.1982
16,0,17654.8,3396.18,942.118,-21.9817,36.7683,11.8598,17812.9,4229.36,855.927,-11.2957,21.875,14.0396
16,1,16072.3,2557.01,768.539,-29.2073,60.1524,13.3232,17176,3706.22,814.029,-17.622,36.3415,15.9146
17,0,13854.1,1619.68,389.058,-32.0275,81.8445,12.9421,13972.6,2005.15,345.963,-23.247,65.8841,16.5244
17,1,11182.1,924.163,-187.944,-29.3293,99.5732,10.0305,12447.5,1285.69,88.5856,-24.2988,78.7653,16.1433
18,0,8446.75,332.795,-861.912,-25.3201,108.201,5.85367,8748.42,478.842,-834.378,-19.4665,92.7439,11.0366
18,1,5813.12,-7.18227,-1328.78,-18.3384,103.75,0.823177,7021,114.922,-1216.25,-17.1037,96.8293,8.65854
19,0,3391.39,122.104,-1886.63,-10.5793,93.4452,0.655486,3063.39,-260.967,-1697.49,-0.640267,76.6921,5.7622
19,1,1181.54,100.557,-2765.3,5.24388,71.6007,1.76829,1399.41,-384.269,-1930.92,8.82622,65.1982,4.60366
20,0,-306.456,28.7305,-3244.14,19.0701,45.7622,-1.05183,-2291.25,43.095,-3229.78,28.9329,30.2135,0.990859
20,1,-2676.71,96.965,-4116.83,15,16.1738,8.7195,-4119.22,535.104,-4088.1,34.0854,14.1921,2.78963
21,0,-2021.91,752.975,-3612.85,3.24697,-19.6494,9.71037,-2329.56,1096.54,-3335.12,18.0336,-30.3353,10.2287
21,1,-666.787,1436.52,-3155.56,-7.92682,-42.8354,-10.9603,-1244.99,1517.92,-3165.13,10.2439,-54.0092,-0.0609543
22,0,1449.69,1827.97,-3408.15,-18.9787,-52.6982,-36.9055,933.735,2086.55,-3603.27,-2.49998,-62.3019,-31.8292
22,1,5347.44,2365.47,-4010.29,-28.0793,-70.7774,-58.9024,2339.13,2479.2,-4040.21,-7.56098,-69.8323,-46.6159
23,0,9145.85,3017.89,-3586.51,-23.9634,-76.6769,-62.8964,8736.43,3174.71,-3341.11,-6.64635,-85.3049,-60.4116
23,1,12459.4,3575.74,-3066.97,-13.5214,-67.2714,-52.2104,11344.9,3488.35,-2995.15,-3.56708,-87.5763,-61.6921
24,0,15576.7,4241.33,-1842.34,-8.67379,-56.2195,-42.7439,15376.8,4709.39,-2139.22,4.63414,-66.3873,-44.0549
24,1,18365.9,4829.1,138.861,-7.94208,-33.3385,-27.7897,17366.3,5222.95,-1255.76,6.89025,-49.2836,-31.936
25,0,20022.7,5357.03,2348.71,-7.8811,-11.6769,-5.13722,19189.5,5858.61,2146.4,5.18293,-23.2165,-2.54578
25,1,20648.8,5437.23,3060.99,-5.57927,-1.67684,19.0853,19962.9,6190.21,3460.82,6.7378,-15.5793,12.3323
26,0,20618.9,4774.04,3151.97,-12.9573,12.5762,32.7134,20712.2,5505.47,3119.65,-3.62803,1.23473,33.0183
26,1,19886.2,3711.01,2859.87,-21.5701,37.2561,37.3018,20744.6,4928.46,2928.11,-9.5122,11.9512,40
27,0,18686.7,2602.5,2205.06,-27.6524,61.9665,36.6159,19201.5,3459.62,2132.04,-18.7043,46.5396,40.1067
27,1,16876.7,1684.32,1751.36,-29.0701,84.6647,33.5061,18334.8,2730.59,1804.03,-22.0274,61.4787,39.4207
28,0,14617.8,1182.74,1539.47,-21.814,108.216,28.4604,15437.8,1420.96,1598.13,-16.8445,89.9238,33.5823
28,1,12047.6,1209.07,1211.47,-5.76221,121.25,27.439,13827.7,943.316,1443.7,-12.0427,102.942,30.6555
29,0,8851.37,1163.58,293.29,10.5793,119.482,37.2104,8635.89,951.695,403.424,11.4634,107.378,38.2622
29,1,5675.46,876.278,-1079.78,18.3079,109.421,48.1555,5799.95,1005.56,-281.318,21.8445,106.037,44.2531
30,0,2937.69,768.539,-2358.29,24.5579,83.7043,61.2043,2285.27,538.696,-1668.76,33.5976,63.994,64.6189
30,1,1687.91,930.147,-3161.54,33.3079,50.3506,67.9878,587.777,529.118,-2717.42,39.6646,43.1098,71.997
31,0,803.255,1011.55,-4121.62,37.7744,23.75,59.2531,128.09,812.831,-4175.49,46.8445,12.1494,59.6952
31,1,675.165,790.087,-4777.63,34.7256,5.07623,33.1555,166.397,905.008,-4703.41,49.1464,0.0609765,50.5031
32,0,1121.68,867.898,-4829.1,21.997,-8.75,-3.90243,888.249,1419.76,-4762.07,34.4817,-18.2622,0.411604
32,1,2383.43,1655.59,-4256.89,7.92684,-26.311,-35.1677,1115.7,1801.64,-4474.76,26.6006,-27.0579,-22.6372
33,0,4535.81,2393,-4053.38,-3.53659,-41.7531,-51.7836,4153.94,2942.47,-4125.21,12.3476,-50.5488,-47.1647
33,1,6597.22,2851.49,-3870.23,-9.78659,-52.439,-44.9238,5504.27,3342.31,-4041.41,6.64634,-59.8323,-53.933
34,0,9015.37,3301.6,-3438.07,-11.2957,-56.2805,-23.8415,8421.6,3866.64,-3513.49,4.66464,-67.7439,-28.5214
34,1,11734,3483.56,-2692.28,-12.3171,-54.2531,-11.7531,9999.38,4122.81,-3236.96,3.78049,-69.9543,-16.0518
35,0,14279,3454.83,-1479.62,-13.2622,-42.2104,-2.10366,14085.1,4115.63,-1763.33,1.14329,-51.9055,-1.25
35,1,15632.9,3355.47,-605.733,-14.436,-22.0122,2.80488,15853.2,4103.66,-992.397,-0.243902,-41.8903,3.82622
36,0,17013.2,3062.18,450.11,-16.1738,0.121951,4.10061,17793.7,3661.93,612.916,-4.67988,-11.1433,4.16159
36,1,17786.5,2610.88,1198.3,-18.9787,20.9451,4.1311,18391.1,3471.59,1183.93,-6.73781,2.40854,4.16159
37,0,17544.7,1883.04,1576.58,-23.0488,38.1555,6.32622,17742.2,2548.63,1537.08,-12.4848,22.6829,7.43903
37,1,16350,1059.43,1601.72,-25.4268,52.3476,8.85671,17256.2,2098.52,1622.07,-14.9695,31.5396,9.58842
38,0,14682.4,468.066,1383.85,-23.1098,69.0397,10.5488,15148.1,986.411,1283.29,-14.0854,52.3171,14.1921
38,1,12819.8,149.638,968.455,-18.811,87.0122,10.0457,14127,549.469,1126.47,-12.9421,62.6677,15.3811
39,0,10724.8,86.1913,320.823,-12.7896,100.351,13.186,10803.8,295.684,227.449,-6.09756,84.2988,18.3232
39,1,8385.69,-136.47,-527.922,-9.87805,103.384,15.061,9393.65,248.997,-185.551,-2.66768,91.6921,20.2896
40,0,5875.37,-160.411,-1283.29,-9.72561,97.4696,18.5518,5943.6,-172.383,-932.542,-2.30183,83.0183,24.1768
40,1,3744.53,-71.826,-2211.05,-4.14634,83.6433,22.6525,4393.36,-233.435,-1358.71,0.92988,74.2073,27.1037
41,0,2589.33,-40.7014,-2795.23,4.6494,64.375,20.9146,1859.1,-274.136,-2704.25,13.7653,50.625,23.4756
41,1,1379.06,-16.7594,-3384.2,11.936,43.4451,11.1738,876.278,-329.203,-3260.9,19.3293,39.6189,20.061
42,0,650.025,198.719,-3748.12,15.2439,19.5122,-2.69818,-98.163,148.441,-3634.4,25.6403,7.80486,-0.365871
42,1,851.139,799.664,-3916.91,15.4726,-7.65246,-13.5214,-423.774,490.811,-3708.62,27.8354,-7.72867,-9.55793
43,0,2212.24,1547.85,-4068.95,11.936,-31.4634,-19.2073,1476.03,1825.58,-4001.91,25.2287,-41.433,-17.9268
43,1,4226.96,1975.22,-4025.85,7.77439,-46.4482,-21.1281,2582.15,2268.51,-4139.57,22.8201,-53.9025,-20.9299
44,0,6839.04,2309.21,-3743.33,4.16158,-55.1067,-19.6646,6280,2762.91,-3742.14,19.6189,-65.122,-20.1829
44,1,9934.74,2624.05,-3062.18,1.18902,-55.5793,-18.8567,8095.99,3011.91,-3497.93,17.8506,-69.2988,-19.8323
45,0,13192.1,2851.49,-2184.71,0.625001,-52.7439,-19.9238,12883.2,3288.44,-2352.3,15.5488,-63.247,-22.8811
45,1,16014.8,3235.76,-1042.67,1.44817,-44.9085,-24.5579,14982.9,3475.18,-1731.01,15.1067,-59.6952,-25.3201
46,0,17537.5,3501.52,-284.909,0.609755,-31.7683,-27.8049,17832,4379,-311.244,12.4848,-40.9604,-29.1311
46,1,18777.7,3772.07,591.369,-3.96342,-15.686,-24.7104,19087.8,4783.62,503.98,10.3963,-31.2653,-29.7409
47,0,19293.7,3737.35,1217.45,-9.20733,1.64637,-10.2134,19440.9,4692.64,1259.35,2.77438,-11.9055,-11.0061
47,1,19075.8,3446.45,1198.3,-15.747,26.0671,7.37808,19668.4,4678.27,1340.75,-0.685978,-1.96646,-0.42682
48,0,18306.1,2880.22,1346.74,-20.061,54.6037,18.1708,18741.8,3427.3,1462.86,-9.90856,37.4239,18.9177
48,1,16619.3,1875.86,1383.85,-18.9482,76.433,20.3964,17974.5,2798.82,1510.74,-12.1799,54.2836,24.8323
49,0,14393.9,940.92,1069.01,-18.4299,92.7135,20.061,15108.6,1623.27,1170.76,-10.7165,76.433,25.3201
49,1,12036.8,647.631,636.857,-15.4116,107.683,19.8476,13304.6,970.848,914.585,-11.4482,85.9604,23.9787
50,0,9522.93,281.318,-155.624,-11.9207,112.683,24.6647,9870.09,477.642,4.78679,-5.06097,96.9818,32.0732
50,1,6465.54,-76.6149,-1313.22,-4.78658,110.549,35.4726,8300.7,147.243,-415.394,-1.66158,99.4513,36.8598
51,0,4575.32,-351.948,-1996.77,6.6921,98.9025,45.625,3467.99,-766.147,-1899.8,15.183,83.0488,50.1677
51,1,2084.15,-843.957,-2850.3,22.3019,73.1707,50.2744,1261.74,-1239,-2483.98,23.4604,72.8354,54.8476
52,0,-547.08,-1043.87,-3725.38,40.183,37.3475,50.4421,-2055.43,-1456.87,-3718.2,50.5489,23.567,52.9421
52,1,-2088.94,-639.251,-4402.94,52.1647,2.43896,43.064,-3153.16,-1271.32,-4322.73,61.9665,0.914617,50.8842
53,0,-1933.32,424.973,-4515.46,52.1646,-27.8507,23.7042,-2438.49,517.152,-4552.57,65.5641,-34.2684,29.4817
53,1,-380.674,1817.2,-4361.04,39.4512,-53.0031,-6.96653,-1880.64,1474.83,-4502.3,64.3598,-49.6342,16.1433
54,0,2438.5,2738.97,-4738.13,17.2408,-71.997,-36.1129,1980.01,3345.9,-4959.59,37.1341,-77.9422,-27.683
54,1,5495.9,3557.79,-4750.1,-1.60064,-83.7043,-56.1738,3778.05,3994.73,-5094.86,23.9939,-89.0397,-45.2897
55,0,8649.06,4404.14,-4480.75,-10.061,-87.8507,-62.1037,8190.57,5216.97,-4629.19,5.7774,-98.2165,-58.9177
55,1,11925.5,4784.81,-3949.23,-19.7866,-86.8598,-58.0945,10240,5728.13,-4426.88,-2.1494,-100.671,-61.9055
56,0,15218.8,4815.94,-2856.28,-27.1799,-71.8902,-49.0396,14730.3,5560.53,-3235.76,-11.9817,-82.2104,-50.2287
56,1,17229.9,4775.24,-1921.35,-24.7866,-45.8994,-37.9268,16827.6,5406.11,-2506.73,-14.0854,-65.3506,-42.5305
57,0,19335.6,4599.26,-644.037,-18.7652,-19.0396,-23.9024,19784.5,5370.19,-472.849,-6.55486,-31.5396,-25.4878
57,1,20480,4073.73,427.367,-19.8018,5.3964,-1.70726,20846.3,5324.7,271.742,-4.46647,-17.1189,-15.5793
58,0,20316,3263.29,1128.87,-26.5244,29.3598,19.497,20490.8,4053.38,1139.64,-15.7317,13.7806,18.5824
58,1,18965.7,2402.58,1617.28,-30.5336,54.1159,30.2744,20061,3418.92,1482.01,-20.5031,28.5823,31.4634
59,0,17255,1742.98,1821.99,-31.3567,75.7775,32.2866,17800.9,2452.86,1719.04,-22.4086,55.8995,37.3019
59,1,15482.1,1274.91,1734.6,-29.5732,91.7989,27.0579,16800.1,2039.86,1837.55,-22.9268,70.3049,36.7835
60,0,13678.1,1031.9,1486.8,-25.7165,101.418,22.0579,13977.3,1376.66,1601.72,-20.503,85.4726,27.3475
60,1,11674.1,677.558,1018.73,-20.6098,104.97,21.936,12690.5,1132.46,1438.92,-17.6829,90.2897,24.7256
61,0,8984.23,132.877,221.461,-8.97863,105.488,26.2348,9174.57,150.831,299.271,0.457377,90.7927,31.997
61,1,7143.1,-262.166,-574.61,10.0001,99.2683,38.7196,7103.59,-549.471,93.3744,9.48172,88.5824,36.4025
62,0,4666.29,-861.914,-1484.41,27.2104,81.7835,51.5854,3439.26,-1256.96,-1363.5,35.0153,64.7561,55.1373
62,1,1483.2,-1300.05,-2452.86,41.8293,55.1067,61.4025,663.188,-1827.97,-2097.32,45.5945,52.0427,62.0275
63,0,-626.088,-954.088,-3439.27,54.1464,23.6889,57.3018,-1613.7,-1246.18,-3359.07,63.1403,14.9694,58.9329
63,1,-1387.44,-169.986,-3942.05,54.0092,-8.8568,34.7408,-2342.73,-780.509,-3858.26,69.7256,-2.68295,53.7805
64,0,-945.707,1034.3,-4001.91,39.5884,-31.8751,-1.52451,-1201.88,1418.57,-4000.71,54.2835,-37.6069,5.06079
64,1,1001.98,2097.32,-3928.88,21.2195,-47.622,-37.5459,-463.277,2449.27,-3982.75,45.3659,-50.9756,-18.5061
65,0,3489.56,2284.07,-4036.62,5.70118,-62.1495,-60.0001,2541.46,2668.34,-4115.63,24.1615,-70.7471,-54.0245
65,1,6083.67,2491.17,-4137.18,-2.22563,-69.2683,-65.9909,4489.13,2806,-4219.78,15.4878,-78.9025,-66.4635
66,0,8996.22,2814.39,-3671.51,-12.0732,-69.375,-62.2104,8404.86,3424.91,-3871.42,2.19507,-79.4665,-61.5549
66,1,10995.4,2958.04,-3161.54,-20.686,-59.0549,-52.9268,10240,3648.76,-3602.08,-3.52135,-77.7134,-57.3781
67,0,13921.1,2974.8,-2144,-23.4451,-41.692,-43.3079,14863.2,3579.33,-1821.98,-8.41466,-53.445,-43.6433
67,1,16794.1,3027.47,-676.357,-21.0213,-23.75,-33.75,16807.3,3549.4,-957.679,-9.14634,-41.8445,-37.8659
68,0,18561.1,2750.94,739.813,-19.3445,-7.07312,-23.064,18814.8,3350.68,847.555,-7.30183,-19.5731,-23.2926
68,1,19103.3,2343.92,1581.37,-18.6281,10.1373,-7.54568,19456.5,3173.51,1492.79,-7.04269,-9.49694,-14.9847
69,0,18753.8,1932.12,2017.12,-16.4634,29.1464,4.7104,19206.3,2558.2,1991.98,-6.81403,11.6922,3.18605
69,1,17568.6,1495.18,1826.77,-13.1402,48.3842,9.61892,18782.5,2254.14,2189.5,-6.25,22.4848,10.122
70,0,15868.8,1114.5,1449.69,-13.0335,65.4726,9.45122,16367.9,1764.52,1505.95,-4.58841,47.119,12.2866
70,1,14287.4,1085.77,1013.94,-14.2988,74.7409,7.5,15302.5,1599.33,1180.34,-4.49695,57.7135,12.6372
71,0,12606.7,1023.52,562.636,-16.3262,83.8263,3.3384,12804.2,1418.56,678.754,-7.83538,71.7379,7.11888
71,1,10656.6,784.1,-74.2227,-15.6098,90.8995,1.90549,11659.8,1266.53,245.404,-8.44512,77.058,5.07622
72,0,9501.39,537.497,-478.841,-13.3994,93.9939,1.875,9210.48,818.815,-575.809,-5.13718,80.9452,6.41769
72,1,7428,202.309,-982.822,-10.3811,86.6463,10.0763,7617.15,568.622,-603.338,-3.26219,79.0701,8.81099
73,0,4794.38,-263.364,-1980.01,-2.66765,71.4024,24.3293,3689.45,-452.509,-1971.63,6.06712,58.8871,26.6007
73,1,2499.54,-413,-2911.35,12.119,53.1097,35.625,2115.28,-877.475,-2609.68,11.6006,49.2988,35.4269
74,0,852.331,-471.658,-3572.15,28.5367,30.8993,36.8293,28.7213,-834.379,-3470.4,36.5398,20.4724,38.3384
74,1,77.8097,-82.5981,-3907.34,34.0854,7.22553,24.6036,-824.803,-575.804,-3818.75,46.3567,7.01218,36.9055
75,0,474.054,828.398,-3861.85,25.3353,-14.7257,0.320027,-301.667,960.082,-3855.86,40.4573,-19.0855,9.64927
75,1,2141.62,1758.54,-3833.12,10.8231,-33.9635,-25.1678,199.917,1693.9,-3809.17,32.9421,-35.3202,-9.81713
76,0,4326.33,2302.03,-3910.93,2.89632,-44.9543,-37.8049,3228.59,2573.77,-3882.2,18.0335,-56.9208,-35.7166
76,1,6684.62,2624.05,-3946.84,-4.51222,-57.7745,-44.1464,4645.95,2940.08,-3966,12.3323,-65.9756,-44.7256
77,0,8238.45,2774.88,-3817.55,-13.7043,-62.9421,-41.936,8783.15,3501.52,-3700.24,0.137139,-72.6525,-40.9909
77,1,10643.4,3059.79,-3134.01,-21.1738,-51.4481,-35.3811,10687.7,3688.27,-3429.69,-5.56404,-71.875,-38.1098
78,0,13623,3235.76,-2037.46,-23.5061,-31.1585,-30.2134,14294.6,3749.32,-1959.65,-9.40551,-42.6218,-30.8994
78,1,16298.5,3125.63,-758.958,-19.9238,-13.2469,-23.4604,15842.4,3700.24,-1237.8,-9.52744,-29.7866,-27.6524
79,0,18093,2910.15,312.447,-17.8354,1.52444,-11.3414,18072.6,3655.95,250.201,-6.64633,-13.0182,-14.2378
79,1,18805.3,2505.53,1041.48,-18.8872,16.7684,5.19823,18889.1,3605.67,883.461,-6.29574,-5.28963,-6.26523
80,0,18526.3,1976.41,1489.19,-19.0549,33.9787,15.3354,18749,2646.79,1491.59,-8.47562,17.1342,14.0092
80,1,17355.6,1461.66,1567,-17.5,50.0306,15.061,18423.4,2181.12,1708.26,-8.87195,27.5305,20.3201
81,0,15762.2,1159.99,1367.09,-16.9207,58.933,12.5,16406.3,1728.61,1403,-7.95732,46.7531,15.4573
81,1,14021.6,954.089,1058.24,-16.3872,69.619,8.68902,15152.9,1540.67,1186.33,-7.77439,54.8628,13.0183
82,0,12743.1,754.173,804.451,-12.6524,77.561,8.3994,12169.7,811.631,822.407,-3.50608,64.3293,13.3384
82,1,10438.7,183.154,323.216,-1.26521,76.2805,22.6525,10686.5,571.017,548.272,0.167692,66.2043,15.686
83,0,7059.29,-1046.27,-320.825,17.7287,67.2104,51.0519,5839.44,-1832.77,-210.693,26.1586,53.7805,54.5886
83,1,3654.74,-2023.1,-1231.82,48.7654,54.4512,86.677,3430.89,-2992.75,-384.269,40.7927,47.7896,74.0397
84,0,784.094,-2547.43,-2104.51,80.0611,34.4512,111.189,-804.465,-3435.68,-1735.8,86.2197,23.5365,109.665
84,1,-756.57,-2232.59,-2869.45,99.6952,2.33223,106.22,-2042.25,-3274.07,-2308.01,105.701,8.53657,121.845
85,0,-1209.07,-1119.29,-3392.58,97.2256,-39.8172,67.5152,-2098.52,-1237.8,-3193.87,110.259,-40.7167,78.9785
85,1,-1095.35,612.921,-4000.71,78.9634,-74.3751,9.45106,-2032.68,-211.885,-3652.36,108.293,-63.8415,53.2317
86,0,-155.62,2145.21,-5038.6,62.2104,-88.5519,-26.4635,-446.513,2776.09,-5244.5,74.253,-95.0611,-27.7899
86,1,1726.22,3296.82,-5864.6,32.5304,-92.4086,-56.9361,495.601,3909.73,-5920.86,56.5092,-105.183,-59.2074
87,0,4657.93,4054.58,-6136.34,4.32921,-86.5396,-65.9604,4414.92,4896.15,-6245.28,18.6432,-95.1677,-62.8811
87,1,6941.99,4426.88,-6027.4,-15.0915,-72.9116,-60.2592,6421.25,5316.33,-6345.83,3.4756,-89.3903,-61.2805
88,0,10542.9,4618.42,-5273.23,-27.7592,-54.9543,-57.1342,11407.2,5482.72,-5196.61,-12.1647,-68.1555,-57.5305
88,1,14526.8,4655.53,-4189.85,-36.6311,-41.6921,-54.0701,13596.7,5515.04,-4560.95,-18.75,-58.0945,-56.4787
89,0,17686,4715.38,-2937.68,-44.375,-33.7195,-46.2195,17714.7,5712.57,-2807.2,-30.0305,-48.186,-48.4146
89,1,19496,4685.45,-1748.96,-47.2866,-20.5335,-29.1311,19317.6,5722.14,-2056.62,-34.3293,-43.5061,-42.6677
90,0,20345.9,4528.63,-831.984,-43.0488,0.670776,-4.4969,20638,5261.26,-806.843,-31.3262,-16.4024,-8.53651
90,1,20573.4,3946.84,-220.266,-39.2378,26.4025,19.4055,21091.7,5088.88,-307.655,-29.1006,-2.53048,7.85063
91,0,19923.3,3068.17,265.757,-40.4421,50.8385,30.7622,20547,4107.25,111.331,-30.2287,27.7745,29.8476
91,1,18614.9,2522.29,591.368,-42.2409,64.1769,31.2957,20037.1,3578.13,375.89,-32.1951,45,36.4939
92,0,17150.9,2353.5,757.765,-45.4573,79.0397,25.6402,17882.3,3111.26,766.145,-37.2104,66.0824,29.1921
92,1,16165.6,2234.99,689.53,-47.6829,92.4543,19.3293,16794.1,2935.29,895.431,-39.1768,74.4055,25.3964
93,0,14623.8,1861.49,501.585,-47.0579,103.643,17.7592,14191.6,2148.79,476.445,-38.9634,89.0245,24.2988
93,1,12820.9,1201.89,292.092,-39.9848,109.588,23.3232,13089.1,1528.7,435.745,-38.1098,95.4421,26.0061
94,0,10278.3,355.538,-231.041,-26.9055,109.253,35.0153,10029.3,122.102,-130.485,-19.8475,94.6189,41.1433
94,1,7028.18,-839.169,-1285.69,-5.45729,105.899,58.7348,8221.69,-658.406,-355.539,-8.125,94.4665,50.4116
95,0,3760.09,-1820.79,-2177.53,16.9055,94.9695,79.7257,3236.95,-2366.67,-1804.03,18.7043,84.5122,78.369
95,1,1280.9,-2312.8,-3046.62,37.561,69.375,85.183,1102.53,-3022.68,-2424.13,31.7683,77.0884,89.5275
96,0,-691.926,-2188.3,-3762.49,46.0976,33.7347,62.6067,-1549.05,-2450.46,-3523.07,52.6982,32.0122,70.0457
96,1,-1842.34,-1394.62,-4174.29,43.3689,6.49389,40.7317,-2962.83,-1865.08,-4064.16,58.8262,9.43597,54.8781
97,0,-1853.11,171.187,-4396.95,29.4055,-25.5641,3.4146,-2478,172.385,-4508.28,37.7744,-40.061,-6.00616
97,1,-1167.17,1237.8,-4490.33,8.81096,-46.936,-36.2043,-1812.41,1567.01,-4663.91,26.8598,-57.9573,-33.2317
98,0,732.627,1880.65,-4800.37,-8.67379,-53.9939,-61.7988,1030.71,2246.96,-4906.92,6.89023,-64.5732,-60.5031
98,1,3574.54,2363.08,-4862.62,-16.5244,-58.4147,-73.9025,2486.38,2436.1,-4948.81,-0.152439,-67.5763,-70.686
99,0,6861.78,2780.87,-4613.63,-23.8415,-60.625,-76.5702,7143.1,3507.51,-4574.12,-8.61282,-71.6311,-75.4116
99,1,10451.9,3019.09,-4031.84,-33.811,-58.0031,-72.5458,9344.57,3898.96,-4399.35,-13.5366,-72.9574,-76.0366
100,0,13824.1,3060.99,-2948.46,-39.9848,-45.9451,-65.2134,13812.2,3764.88,-3066.97,-24.2836,-58.1707,-66.5092
100,1,16740.3,2966.42,-1594.54,-38.5976,-29.0854,-49.8323,16174,3661.93,-2104.5,-27.1189,-50.2134,-60.4421
101,0,18969.3,2755.73,-106.54,-30.6555,-9.37498,-26.3872,19156,3320.76,-213.081,-20.686,-28.3536,-33.8872
101,1,20158,2193.09,772.131,-24.4512,4.46648,-10.1829,20259.7,3119.64,635.661,-16.6311,-17.2866,-20.4726
102,0,19791.7,1274.91,1448.49,-21.2957,24.8019,6.60064,20155.6,2133.23,1341.95,-11.814,13.8568,8.68909
102,1,18405.4,859.518,1783.68,-21.2653,44.9696,16.997,19777.3,1617.28,1690.31,-11.0213,27.4848,19.9695
103,0,17330.4,800.86,1745.37,-21.3262,62.8812,17.5457,17379.5,1325.19,1580.17,-12.1342,50.7165,19.7561
103,1,15775.4,699.107,1319.2,-19.5427,78.369,15.3354,16253,1199.49,1383.85,-12.1646,61.0214,18.9939
104,0,13745.1,335.187,778.115,-15.8994,88.2927,16.2195,13514.1,575.804,768.537,-8.41463,74.2226,19.6189
104,1,11359.3,-313.642,142.454,-8.61279,88.5824,26.8598,11915.9,312.443,525.527,-5.82317,78.2927,21.936
105,0,8675.38,-1182.74,-447.717,6.0976,81.6768,41.3568,8104.36,-1248.58,-569.823,12.3324,70.3354,43.4757
105,1,5839.45,-1559.82,-1526.31,31.5245,71.0213,54.8476,6537.37,-2361.88,-300.47,21.3415,64.3903,51.6159
106,0,2843.11,-1989.58,-2140.42,49.7104,48.689,56.6464,2033.86,-2676.72,-1541.87,52.1495,39.878,56.6311
106,1,412.995,-1595.73,-3084.93,64.6647,14.756,50.3506,-53.8713,-2679.11,-2269.7,65.0458,26.128,57.1189
107,0,-1325.19,-750.58,-4332.31,71.5702,-6.78358,40.5945,-1933.32,-964.858,-4121.62,81.0824,-14.7257,38.3841
107,1,-2128.45,105.347,-5433.64,65.9451,-34.8324,20.1524,-2834.74,-235.828,-4912.9,82.3933,-40.5336,22.1036
108,0,-2225.41,761.357,-6027.4,50,-57.4391,-6.7836,-2418.14,1491.59,-6258.45,62.1799,-68.2318,-11.6007
108,1,-1537.08,1595.74,-6688.2,24.6189,-66.3872,-33.8568,-2061.41,2279.28,-6860.59,51.4177,-77.7744,-27.1494
109,0,422.582,2431.31,-7151.48,-5.68605,-62.2561,-48.0488,1266.54,3641.58,-7422.03,10.1066,-72.9116,-44.7409
109,1,3715.81,3240.55,-6781.58,-31.9056,-51.7378,-51.1433,3027.47,4177.88,-7514.2,-8.56709,-69.1311,-49.4055
110,0,7942.77,4021.06,-5535.39,-47.2866,-38.3689,-51.8903,8236.07,4827.91,-5682.63,-29.3903,-53.8414,-49.436
110,1,13201.6,4371.81,-3882.19,-53.8872,-30.0762,-52.8506,10669.8,5021.84,-4692.63,-38.3384,-44.1616,-49.6494
111,0,18166,4165.91,-2023.1,-54.2836,-33.2775,-55.8994,17384.3,4799.18,-2067.38,-40.4421,-46.2653,-55.8689
111,1,21485.6,3684.68,-311.242,-46.8445,-32.8201,-47.2256,20175.9,4546.59,-890.642,-40.4421,-48.872,-58.3384
112,0,23171.1,3280.06,1019.93,-38.7348,-24.0853,-35.8841,23337.5,3919.31,930.153,-24.1158,-30.8079,-33.6432
112,1,23292,2653.97,1674.75,-27.5,3.61289,-9.52736,24334.7,3809.18,1538.27,-16.0213,-18.186,-19.2835
113,0,22516.3,2044.65,1819.59,-25.4878,39.2532,19.3903,22985.5,3135.2,1533.49,-18.0945,31.113,23.6282
113,1,20743.4,1473.63,2285.27,-28.5061,72.3629,37.5153,21596.9,2319.98,2069.79,-20.8689,53.0946,41.1433
114,0,18895,1241.39,2218.23,-32.4543,95.3202,40.2134,19065,1871.07,2067.39,-25.6708,79.2379,44.4055
114,1,16970.1,988.804,1947.68,-33.2012,109.68,31.7378,18005.6,1750.16,1981.2,-27.3018,90.0915,43.6433
115,0,14555.5,796.072,1504.75,-25.7469,113.811,24.9543,13952.2,944.509,1545.46,-19.1006,98.4452,31.3262
115,1,11286.3,102.948,736.214,-12.5,107.744,31.875,12169.7,554.257,1212.66,-13.186,99.5427,29.3903
116,0,7364.55,-1156.4,-325.616,15.4727,94.6341,52.1038,7180.19,-1732.22,89.7775,20.7014,83.3079,53.9788
116,1,3422.5,-2067.4,-1836.36,49.2989,78.1707,74.8477,4175.48,-2864.66,-978.035,38.7348,74.436,66.2958
117,0,407.005,-2402.58,-3068.17,64.9086,63.4299,81.997,33.5021,-2852.69,-2738.97,70.2288,48.5822,80.0458
117,1,-1928.54,-1984.79,-4394.56,72.1494,33.0029,70.6555,-1605.31,-2809.6,-3293.22,81.2653,34.2835,81.8598
118,0,-3345.9,-575.8,-5388.15,66.0061,-9.95443,43.4298,-3603.28,-598.54,-5133.18,74.6189,-24.2686,39.2071
118,1,-3921.7,481.237,-5821.5,46.9054,-43.3233,1.05167,-4219.78,426.169,-5895.72,68.689,-49.7409,16.0061
119,0,-3403.35,1768.12,-6364.99,20.2286,-58.6281,-39.2075,-2735.37,2802.42,-6679.83,33.0639,-68.369,-38.9789
119,1,-1295.25,2962.83,-6895.3,-6.26534,-62.9726,-62.7288,-2025.49,3742.14,-7107.19,16.2805,-73.2013,-59.7104
120,0,2043.47,3722.99,-6955.16,-25.3202,-63.2165,-71.7683,2133.25,4452.02,-7074.87,-6.38731,-75.3202,-68.2623
120,1,5868.2,4307.17,-6323.08,-39.5275,-55.4725,-72.3171,4296.4,4812.35,-6853.4,-16.0518,-74.9543,-70.9604
121,0,9866.52,4480.75,-5103.24,-50.4116,-38.2469,-66.3872,9975.47,5212.18,-5184.64,-33.0489,-53.7652,-65.7317
121,1,14300.6,4247.31,-3539.82,-54.436,-24.4359,-49.6951,12580.3,5246.89,-4358.64,-39.7866,-43.5823,-61.6311
122,0,18100.2,3810.37,-1422.15,-46.9817,-12.5914,-23.8109,17868,4256.89,-1341.94,-35.9908,-28.9176,-29.7102
122,1,20508.7,3016.69,207.104,-38.6128,-4.10058,-5.76214,20069.4,3867.83,-56.2622,-31.4634,-21.9665,-14.0701
123,0,21142,1847.12,1239,-30.7622,11.9208,18.9178,21376.6,2925.71,1049.86,-20.5945,-1.03648,20.0611
123,1,20900.2,1158.79,1705.87,-29.7866,32.8355,37.3476,21606.5,2454.06,1444.9,-17.5,9.83234,34.9238
124,0,19602.5,621.293,2091.34,-32.9116,51.997,40.1525,19614.5,1458.06,1975.22,-23.4147,36.0062,41.1281
124,1,17808.1,451.307,1945.29,-36.2195,68.5214,32.8658,18632.9,1065.42,2076.97,-26.0976,47.2409,41.4177
125,0,15878.3,555.455,1636.44,-36.0518,79.8629,22.6372,15619.8,949.3,1626.86,-27.0732,64.1922,27.4847
125,1,13892.3,604.536,1165.97,-31.6158,84.5122,17.9421,14271.8,962.469,1358.71,-26.0823,69.7866,22.3476
126,0,11769.9,478.84,639.25,-24.2073,86.0671,16.1585,11534.1,373.492,1065.42,-18.8567,71.3415,18.8872
126,1,9971.84,-160.415,29.9248,-18.8567,81.997,10.8079,10645.8,542.289,281.315,-12.0122,72.9269,18.811
127,0,7028.16,-998.386,-434.549,-6.8597,68.9329,15.0915,6775.57,-1334.78,-59.8557,-4.40545,58.4298,15.7622
127,1,4211.39,-1523.91,-1760.94,8.7958,59.253,22.6068,4866.21,-2260.13,-444.126,3.42991,51.0976,17.6067
128,0,1215.04,-2188.3,-3185.49,30.5489,40.4877,27.8354,762.53,-2658.76,-2758.13,40.2594,24.1462,26.9208
128,1,-426.173,-2267.31,-3958.81,43.4147,14.1615,28.5976,-1085.77,-2780.87,-3695.45,53.9025,10.5792,29.7866
129,0,-1708.27,-1444.9,-4868.61,45.2287,-13.369,17.0884,-2432.52,-1167.16,-5049.38,55.2592,-26.8905,11.9816
129,1,-1583.76,-126.887,-5565.32,32.8963,-34.558,-6.14341,-2823.96,-260.966,-5621.59,52.7439,-41.5854,2.10364
130,0,15.5716,1122.89,-5730.52,13.0182,-43.994,-36.6313,209.512,1742.99,-5845.44,28.6889,-53.7501,-34.2838
130,1,2785.67,2201.47,-5639.54,-3.87203,-43.9939,-57.7135,1594.54,2578.56,-5893.33,17.4543,-56.6768,-50.8232
131,0,6432.04,3025.08,-5129.57,-15.4726,-45.7165,-62.5762,6405.72,3761.3,-5103.24,1.60051,-57.5915,-60.1678
131,1,10183.8,3381.81,-4201.82,-24.6799,-45.1829,-55.2896,8704.12,4207.81,-4643.55,-5.12197,-58.7195,-61.5092
132,0,13940.3,3398.57,-3083.73,-29.7714,-35.1981,-38.7194,13413.5,4243.72,-3342.3,-14.3293,-48.5823,-40.5182
132,1,17259.8,3148.37,-1553.83,-30.4573,-25.5183,-26.3872,16237.5,4100.07,-2370.26,-17.5153,-42.0579,-29.8171
133,0,19438.5,2749.74,-44.2854,-27.6677,-8.62795,-8.61271,19369.1,3555.39,-247.787,-15.0152,-19.3139,-5.57912
133,1,19843.1,2294.84,812.835,-23.2012,11.5093,10.7318,20483.6,3365.05,559.047,-13.5976,-8.73474,5.41161
134,0,19597.7,1988.38,994.791,-20.1372,33.0946,26.6007,19841.9,2742.55,810.439,-10.5793,20.0002,28.2471
134,1,18409,1562.21,875.08,-21.9817,53.0946,28.1098,19366.7,2476.8,854.73,-10.1372,32.8659,34.9848
135,0,16515.2,1233.01,790.086,-25.2287,69.0397,20.7012,16831.2,1856.7,750.582,-15.8842,54.6191,24.8018
135,1,14366.4,1059.43,463.276,-24.0244,80.5641,10.6097,15322.9,1523.91,603.338,-17.6067,63.8415,19.6799
136,0,11711.2,1021.13,-186.751,-18.2774,84.3598,5.24389,11537.6,1192.31,-88.59,-11.3414,71.0824,10.3506
136,1,8821.42,815.224,-1248.58,-13.75,79.0854,8.26223,9673.77,1211.47,-507.572,-7.66768,72.1799,7.94208
137,0,5610.79,211.883,-2331.96,-11.6158,67.0426,15.747,5198.98,355.532,-2090.15,-4.29876,57.4694,17.0275
137,1,2686.28,-361.527,-3615.25,-3.44507,49.5274,25.808,3165.13,-143.654,-2832.34,-2.39329,49.2988,21.2348
138,0,392.637,-1060.64,-4716.58,3.30796,36.128,30.1677,28.7092,-1140.84,-4520.26,13.43,21.0059,30.7013
138,1,-684.746,-994.789,-5325.9,8.58235,17.6828,31.0518,-1296.46,-1519.12,-5114.02,19.4665,8.29266,34.2226
139,0,-737.413,-626.082,-5509.06,10.4726,-4.87818,21.2347,-1193.51,-536.294,-5427.66,22.5915,-17.5307,22.317
139,1,422.585,276.536,-5347.45,7.60669,-26.7684,-0.548912,-786.493,28.7321,-5540.18,22.7591,-29.9848,13.9024
140,0,2597.72,1368.29,-5092.47,2.19509,-43.2471,-20.7928,2524.71,1836.37,-5182.25,16.7835,-53.0337,-16.4179
140,1,5644.35,2073.38,-4948.81,-6.67689,-54.9543,-28.9635,4187.46,2639.61,-5154.72,13.0945,-62.7135,-27.8201
141,0,9099.18,2479.2,-4355.05,-14.3598,-57.8964,-25,9493.05,3203.45,-4259.28,1.66151,-69.2074,-23.3841
141,1,12830.5,2817.98,-3214.21,-17.0122,-46.2804,-17.942,11848.9,3412.93,-3724.18,-2.72867,-68.9482,-19.9238
142,0,16262.6,2707.84,-1711.85,-12.8811,-25.32,-12.7286,16380,3195.06,-1935.7,-0.975595,-44.7255,-14.8933
142,1,19108.1,2657.56,-286.099,-10.0305,-2.16451,-5.7774,18428.2,3142.39,-1034.29,1.57014,-27.4695,-10.4878
143,0,20689.5,2382.23,872.693,-11.4025,10.7927,-0.320096,20757.7,3326.74,551.874,-1.6921,-1.87483,0.686052
143,1,20938.5,1997.96,1543.07,-16.4482,26.3873,10.0001,21380.2,3274.07,1262.94,-4.58843,8.39942,6.28051
144,0,20565,1699.88,1808.82,-20.8994,45.0154,16.7988,20529.1,2364.27,1835.16,-11.2043,33.0642,17.9422
144,1,19304.4,1252.16,1910.57,-21.936,62.8812,15.1677,20010.7,1929.73,2015.92,-12.9116,44.2683,20.9909
145,0,17494.4,823.603,1742.98,-20.6707,79.5581,8.94813,17724.3,1307.23,1686.71,-12.1646,64.2532,13.4298
145,1,15624.5,547.074,1303.64,-18.2774,94.1312,1.38715,16698.4,1108.52,1431.73,-11.0823,76.2196,8.18596
146,0,13515.3,517.148,484.82,-13.3231,102.79,-1.32623,13602.6,890.641,281.309,-5.53349,88.994,4.46644
146,1,10550,185.548,-798.475,-6.95118,99.8476,-1.6311,11795,628.476,-150.835,-3.32317,92.4848,2.66768
147,0,6562.48,21.5474,-2126.06,2.24092,87.6829,3.42992,5890.88,-174.783,-1784.89,6.89033,77.4389,4.66466
147,1,2847.88,-397.441,-3974.39,13.5824,67.0883,11.5245,3215.41,-428.562,-2922.13,14.1769,69.6037,7.62197
148,0,-809.265,-883.464,-5412.1,18.308,50.5182,16.2653,-1270.16,-919.378,-5025.45,26.3721,32.4387,17.8202
148,1,-3216.62,-817.618,-6149.51,21.372,22.5608,21.8903,-3754.12,-1218.65,-5868.19,30.5031,14.192,21.936
149,0,-3915.72,-138.858,-6338.65,22.561,-11.0216,18.0335,-4910.51,-448.905,-6296.75,34.1464,-25.5491,16.7683
149,1,-3649.96,512.363,-6228.51,15.5487,-37.8965,2.22548,-4906.91,178.371,-6434.42,34.939,-43.6891,12.4695
150,0,-1911.76,1393.43,-5849.03,-0.183048,-51.5702,-22.241,-1541.84,1765.74,-5855.02,14.4663,-62.0124,-20.1832
150,1,1119.31,1989.58,-5747.28,-13.2318,-57.4696,-40.4117,207.104,2373.85,-5731.72,5.53352,-68.4604,-34.497
151,0,4854.27,2329.56,-5434.83,-21.9513,-59.8324,-43.5366,4660.35,2883.82,-5439.62,-5.79278,-71.7988,-38.75
151,1,8742.45,2583.35,-4503.49,-26.875,-59.0092,-37.4847,7544.14,3144.78,-4867.41,-10.564,-72.8049,-38.8872
152,0,12552.8,2704.25,-3075.34,-23.1097,-47.7591,-25.0761,12833,3046.62,-3110.05,-10.1524,-63.9786,-26.9816
152,1,16073.5,2717.42,-1642.41,-14.7103,-26.8139,-8.41451,15078.7,3020.29,-2310.4,-7.59145,-56.4634,-20.8232
153,0,18695.1,2485.18,-308.842,-11.5701,-6.21937,12.805,18637.7,3220.2,-501.569,-1.29568,-26.4022,5.6405
153,1,20349.5,2117.67,845.161,-12.6982,6.12812,26.1891,20057.4,3313.58,294.489,-0.0914697,-13.4603,18.6433
154,0,20945.7,1726.22,1756.15,-18.0183,23.0947,36.4178,21186.3,2784.45,1550.26,-9.22265,12.3783,36.0825
154,1,20893,1470.04,2165.56,-23.8872,41.4636,34.2073,21489.2,2436.1,2055.42,-13.5214,24.0397,40.3506
155,0,19929.3,1076.19,2328.36,-27.4543,55.8538,20.6859,19985.6,1672.34,2229,-17.6677,41.1435,23.8566
155,1,17999.6,800.859,2166.75,-27.0274,67.9727,8.20115,19079.4,1328.78,2281.67,-19.0854,48.4299,15.8232
156,0,16158.5,689.53,1717.84,-23.3536,79.8782,0.152389,16281.7,1037.88,1702.27,-14.6646,64.9545,4.96942
156,1,14478.9,609.324,1133.65,-19.9238,87.0732,-5.28967,15107.4,1031.9,1339.55,-12.0274,72.2562,1.46341
157,0,12382.8,685.94,590.167,-14.3902,86.5549,-4.37498,12192.4,763.747,593.755,-6.24995,72.1951,-0.564044
157,1,10565.6,398.631,-430.965,-5.12188,85.3659,-7.82017,11012.1,586.579,155.621,-2.25608,72.7744,-0.624995
158,0,7837.4,-138.868,-1198.3,4.8019,81.7531,-11.8141,8004.98,-229.851,-793.686,7.62204,70.9909,-9.4818
158,1,4370.59,-688.337,-2665.96,13.6129,75.4878,-8.24691,6138.72,-697.912,-1209.07,17.0275,67.561,-10.7165
159,0,1359.89,-1075,-4198.24,21.6769,57.7743,5.71659,1341.91,-1046.27,-3717.02,30.1221,42.4083,7.4392
159,1,-371.111,-1162.38,-4890.16,26.1738,32.134,14.4513,-685.944,-1279.7,-4726.16,34.4208,28.8872,14.5732
160,0,-1948.89,-685.934,-5570.12,28.4756,5.47236,12.2713,-2747.37,-399.822,-5686.24,39.2074,-7.31742,10.4268
160,1,-2396.6,281.327,-5889.74,24.3445,-14.8782,-0.533653,-3325.55,146.049,-6021.42,39.8628,-22.4848,6.52437
161,0,-1047.45,1233.02,-5620.39,13.6127,-24.9848,-19.3904,-1114.48,1521.53,-5688.62,28.0487,-34.7867,-15.5795
161,1,1837.57,1582.57,-5300.76,1.67674,-34.8782,-35.0459,166.403,2036.27,-5369,19.8628,-40.1677,-28.7653
162,0,5244.53,1655.59,-4880.58,-7.63727,-48.0794,-40.7927,4792.04,2200.27,-4841.07,8.58222,-57.7898,-37.7897
162,1,8480.29,1878.25,-4340.68,-13.0031,-54.0549,-41.1586,6951.57,2274.49,-4608.84,4.07011,-65.4421,-40.4878
163,0,11439.5,2390.62,-3545.81,-15.2744,-45.3658,-37.8354,11526.9,3056.21,-3655.94,0.137156,-58.9176,-37.9116
163,1,14173.7,2943.68,-2340.32,-16.9512,-33.9633,-34.2073,13554.8,3500.32,-3171.12,-1.72257,-52.6372,-35.9604
164,0,16553.5,3161.54,-904.996,-19.2988,-13.1553,-25.0304,16329.7,3813.97,-1424.53,-7.21043,-20.7923,-21.1584
164,1,18322.8,3207.03,-44.2871,-18.4299,7.86603,-9.17669,17452.5,3883.4,-474.048,-8.41463,-6.95118,-13.0487
165,0,19160.8,3015.49,417.792,-22.8202,26.4026,7.98795,19299.7,3785.23,466.879,-13.8568,13.3386,8.67402
165,1,19683.9,2500.74,998.387,-28.0183,43.5825,16.2348,19825.2,3542.22,1103.73,-17.1494,22.9421,18.0641
166,0,19209.9,1715.44,1191.12,-32.0885,60.2898,9.60357,19079.4,2268.49,1121.68,-22.7897,45.7015,10.8993
166,1,17609.3,1180.34,1133.65,-32.7744,75.427,-0.960456,18424.6,1748.96,1054.65,-24.3293,55.7165,6.12803
167,0,15655.7,1069.01,1092.95,-30.8536,86.8599,-8.26225,15948.9,1547.85,1043.87,-22.5305,72.0581,-3.67389
167,1,13716.4,981.622,806.843,-25.9908,92.4696,-9.40549,14253.9,1343.15,1083.38,-20.8994,78.4757,-6.38719
168,0,11777.1,654.81,235.823,-19.9085,91.5549,-8.49085,11574.7,843.951,489.607,-13.506,80.0915,-4.90852
168,1,9402.01,153.224,-444.131,-13.1402,86.3872,-6.03656,10399.2,658.405,-10.7776,-9.92377,78.9787,-4.54269
169,0,6815.07,-490.818,-1458.08,-8.70424,81.3567,-5.12195,6787.52,-326.82,-1309.64,-0.182813,67.5914,-3.10974
169,1,3512.26,-994.795,-2406.18,-3.00299,67.0578,-3.04876,4843.46,-794.877,-1878.25,4.11587,60.8536,-2.57622
170,0,1669.94,-1231.82,-3286.05,13.2319,46.448,5.35071,689.482,-1543.07,-3626.04,26.4637,31.4173,7.95745
170,1,-416.613,-1288.08,-4489.14,25.8843,23.6583,11.7683,-1064.23,-1657.98,-4495.12,36.7531,17.5609,12.4695
171,0,-1723.83,-793.672,-5176.27,28.7957,-0.335596,8.33836,-2361.89,-803.244,-5146.34,39.7561,-9.96985,9.2835
171,1,-1851.91,40.7098,-5364.21,25.1067,-22.0429,-7.13432,-2607.28,-359.128,-5372.59,40.5183,-23.2318,4.95423
172,0,-629.66,920.579,-5221.75,14.1005,-38.0032,-20.9605,-884.636,1282.12,-5243.3,28.9328,-45.9759,-16.6314
172,1,1916.59,1376.67,-5040.99,1.66147,-52.927,-25.0762,80.211,1896.21,-5137.96,22.0427,-55.2897,-24.1616
173,0,5021.87,1592.15,-4780.02,-4.78663,-62.1038,-18.2469,4772.9,2043.45,-4781.22,12.0731,-71.8143,-16.6615
173,1,8536.56,1889.03,-4071.33,-6.0061,-58.9176,-13.5213,7103.61,2133.23,-4525.04,8.85671,-76.8903,-12.1189
174,0,12096.7,2202.67,-2997.53,-5.57926,-51.7225,-14.9848,11827.4,2548.63,-3274.05,9.28355,-62.7895,-14.9391
174,1,15287,2580.95,-1604.1,-3.64327,-37.2102,-21.7227,13886.4,2731.78,-2671.93,9.63415,-55.1372,-17.7897
175,0,16956.9,2796.43,-732.619,0.381144,-21.5547,-26.372,17281.4,3355.48,-751.754,13.3537,-33.4296,-26.3568
175,1,18478.5,3014.3,-134.07,1.52439,-6.81388,-21.1737,18604.1,3708.62,-47.8829,15.2592,-23.9177,-27.7896
176,0,19366.7,3084.93,408.217,-3.91776,9.86299,-8.53644,19601.3,4024.66,508.775,6.7072,-1.73751,-8.44487
176,1,19351.1,2916.14,727.84,-10.7623,28.0185,2.04278,19934.1,4019.86,720.655,2.36279,8.61285,0.198203
177,0,18506,2657.56,617.702,-17.1952,46.7533,6.17381,18869.9,3568.55,560.241,-5.97572,29.9546,7.14948
177,1,16839.6,2213.43,344.762,-21.0214,64.36,5.25913,18116.9,3234.56,398.633,-11.0214,43.5215,9.02439
178,0,15128.9,1972.82,140.059,-24.8324,78.0337,-0.686053,15582.6,2706.64,73.019,-15.6708,62.1192,3.7042
178,1,13289,1873.46,-148.444,-24.939,84.1312,-6.29579,14311.3,2473.21,73.0245,-17.8659,69.0702,0.670714
179,0,11373.6,1555.03,-786.503,-24.1311,84.9848,-9.7104,11507.7,2019.5,-792.494,-15.9756,70.5336,-6.75315
179,1,9184.13,1240.19,-1385.05,-22.9573,82.8811,-9.92378,10004.2,1640.02,-1138.44,-15.564,69.6189,-9.86282
180,0,7878.11,1003.17,-1964.45,-18.4603,77.0731,-4.77127,7333.4,1219.84,-2112.9,-9.22247,61.4786,-1.34134
180,1,5506.63,287.295,-2833.55,-17.3476,65.945,1.09762,5908.88,937.328,-2676.72,-7.34757,56.4786,2.22562
181,0,2603.66,-130.487,-3591.31,-11.128,50.9602,10.1373,1760.88,-444.144,-3551.81,-1.72248,38.201,11.7684
181,1,543.464,-465.676,-4668.71,1.76846,32.9724,17.1647,150.83,-875.081,-4215,5.21349,29.314,16.7531
182,0,-779.326,-648.83,-5207.39,7.37808,11.2345,15.9603,-1441.33,-663.191,-5091.28,16.7684,0.304457,16.875
182,1,-986.41,-328,-5096.06,4.34446,-9.49718,4.26813,-1899.8,-554.257,-5295.97,19.375,-13.0946,14.375
183,0,385.487,435.755,-4748.89,-2.42387,-24.7563,-12.4545,-33.4905,618.919,-4839.87,11.5548,-34.7107,-8.81132
183,1,2844.34,820.017,-4575.32,-9.66472,-37.18,-25.7928,1517.94,1174.36,-4595.67,7.83535,-42.9269,-19.3446
184,0,5601.27,1124.08,-4074.92,-13.0641,-44.1159,-29.1006,4899.78,1456.88,-4085.7,1.9054,-56.0825,-25.5794
184,1,8426.42,1504.76,-3299.2,-13.6433,-48.7196,-24.0396,6508.65,1575.39,-3793.61,0.243905,-61.2196,-26.1738
185,0,11222.9,1884.24,-2403.77,-11.8292,-47.1189,-14.0395,10600.4,2182.32,-2632.41,3.09456,-58.1402,-11.2955
185,1,12949.1,2121.26,-1671.15,-8.15544,-38.1249,-3.18585,12484.6,2512.72,-2076.97,4.71038,-55.2287,-4.31399
186,0,15199.6,2345.12,-436.925,0.000111844,-24.9541,4.08544,15624.6,2671.93,-313.614,14.2684,-36.4327,3.99402
186,1,17358,2461.24,349.56,4.52747,-10.9907,8.6281,17306.5,3058.6,322.021,18.6586,-27.7134,7.30184
187,0,18720.3,2462.44,981.63,0.807858,2.83553,11.0519,18947.7,3400.97,987.618,13.003,-11.5546,11.4025
187,1,19202.7,2413.35,1306.04,-6.34155,16.8447,9.14631,19618.1,3447.65,1212.66,9.28351,-3.9024,12.6829
188,0,18693.9,2355.89,1183.93,-10.7927,33.9941,4.19201,19121.3,3043.02,1183.93,0.487676,17.5308,6.92064
188,1,17356.7,2154.78,791.278,-11.4634,51.296,-1.44824,18581.4,2882.62,961.269,-1.9817,28.186,3.85669
189,0,15610.2,1895.01,403.419,-12.1799,64.9697,-5.10675,15939.4,2610.87,326.799,-2.43903,48.7503,-0.960438
189,1,13934.2,1807.62,189.14,-12.7134,72.0885,-6.53965,14735.1,2401.38,189.143,-3.3994,57.1037,-3.03355
190,0,12191.3,1696.29,-429.769,-12.7134,76.433,-9.8781,12509.7,2188.3,-293.298,-4.07013,63.4148,-7.62203
190,1,10661.4,1622.07,-852.339,-12.5457,78.9482,-11.0061,11366.5,2069.79,-606.932,-4.29878,65.7622,-9.2683
191,0,8884.86,1501.16,-1679.54,-11.5854,75.1981,-8.42984,8152.21,1912.96,-1866.3,-3.00303,61.067,-5.57921
191,1,6078.84,912.182,-2669.55,-13.8415,63.9938,-0.975503,6408.07,1612.49,-2337.94,-3.61282,57.3933,-3.73475
192,0,3178.27,616.505,-3738.56,-11.9054,47.9266,12.241,2339.07,482.415,-3610.48,-2.36278,34.7558,13.4302
192,1,966.036,245.4,-4853.06,-1.05167,32.2712,22.18,707.481,47.8826,-4361.04,2.19519,24.9238,21.0976
193,0,-304.076,-138.868,-5463.57,3.85674,15.8992,23.5823,-768.561,-124.501,-5359.44,13.0947,6.47837,25.4726
193,1,-409.406,21.5519,-5214.57,1.41763,-0.137389,13.6127,-1221.04,-165.2,-5633.56,14.9543,-5.244,23.2317
194,0,1088.19,780.521,-4613.62,-4.46655,-14.6953,-3.44535,650.057,986.43,-4696.21,10.0761,-23.7503,2.8198
194,1,3423.74,1131.26,-4309.56,-9.11591,-24.0855,-13.5824,1704.68,1513.14,-4335.9,7.17986,-31.4635,-6.8903
195,0,6023.84,1277.31,-3920.5,-14.1007,-37.0581,-15.9756,5407.36,1693.9,-3970.78,-0.106822,-50.8083,-11.4177
195,1,7823.07,1412.58,-3501.51,-16.8445,-40.9604,-12.5457,7311.9,1759.74,-3678.69,-3.1555,-57.1494,-11.3719
196,0,10623.1,1589.75,-2616.85,-14.8475,-32.1645,-12.3476,11465.9,1903.39,-2470.8,-1.35667,-44.8931,-11.5244
196,1,13606.3,1953.67,-1328.76,-10.4115,-17.4998,-13.7348,13269.9,2106.9,-1789.66,1.61589,-35.0304,-13.0336
197,0,16213.6,2331.96,19.1711,-8.20121,-2.75896,-14.4055,16524.8,2867.07,62.2798,3.79576,-16.1887,-14.5732
197,1,17968.5,2483.99,1101.35,-6.95121,10.1831,-8.24685,17823.6,3077.75,905.013,4.22256,-8.21643,-14.4817
198,0,18998,2622.85,1616.09,-8.10979,22.4392,2.57637,19188.4,3564.98,1519.13,2.78961,7.56124,2.04297
198,1,19136.9,2317.58,1517.92,-13.8568,39.0246,6.85978,19692.3,3669.11,1601.72,0.670703,15.3964,9.10064
199,0,18435.3,1904.58,1301.25,-16.5244,56.5704,2.10357,19072.2,2657.55,1376.66,-6.18914,40.2139,4.7865
199,1,16816.8,1668.76,1066.61,-15.5945,67.2715,-2.69823,18203.1,2223.01,1204.28,-7.7439,51.1434,1.1585
200,0,14818.9,1558.62,664.385,-12.6219,80.8234,-9.34462,15374.3,1990.78,794.868,-3.99384,69.3753,-7.69832
200,1,12770.6,1547.85,-260.983,-12.8201,88.4757,-15.5184,14062.3,2032.68,494.399,-2.89634,76.1281,-11.7531
201,0,11403.6,1522.71,-840.37,-17.8355,89.0244,-18.6433,10909.1,1942.89,-781.729,-9.87818,75.5945,-15.0763
201,1,8924.35,1545.46,-1456.88,-17.7896,86.4024,-17.0579,9364.91,1807.62,-1359.91,-12.3323,74.4817,-16.6768
202,0,6242.84,1186.32,-2597.73,-13.4603,74.7254,-10.6706,5578.42,1363.49,-2649.21,-4.87791,59.4357,-8.06386
202,1,3025.03,316.021,-3775.67,-12.4238,55.2284,1.14348,2889.77,758.953,-3555.4,-2.05792,50.3048,-3.42985
203,0,348.322,34.7153,-4426.89,-6.4633,33.1552,15.3356,-428.615,-351.966,-4180.29,1.43299,23.5666,14.8784
203,1,-1239.02,-65.8422,-5105.65,7.02766,12.3778,21.2043,-1581.37,-695.516,-4365.83,6.40251,11.2347,22.5305
204,0,-1687.91,-164.004,-5420.48,10.1219,-6.49417,14.0852,-2075.78,-244.2,-5263.67,19.4819,-14.2535,16.9816
204,1,-956.469,161.615,-4845.85,4.34441,-24.1314,0.487594,-2163.16,-22.7436,-5404.91,22.2713,-25.6098,11.7835
205,0,1164.82,565.037,-4392.16,0.21337,-35.6556,-6.96654,325.659,632.081,-4466.37,14.2529,-50.3054,-4.03992
205,1,3768.51,808.046,-4104.85,-2.60675,-54.6955,-9.92382,1659.19,839.168,-4145.56,11.25,-62.9727,-9.42074
206,0,5463.59,1004.37,-3896.56,-0.960321,-71.8143,-2.4846,5248.16,1315.62,-3828.32,14.619,-83.8266,0.259335
206,1,8052.94,1369.49,-3462.01,0.274399,-76.4939,9.32945,7041.36,1675.95,-3707.42,16.2043,-91.1129,6.32628
207,0,11491,1780.09,-2510.3,5.22875,-67.4389,16.0824,12639.1,2037.47,-2404.95,19.9086,-79.6492,16.4484
207,1,15221.2,2158.38,-1629.24,12.0885,-45.4875,11.2804,15254.7,2325.97,-1832.76,23.6129,-71.2042,17.8658
208,0,18259.4,2455.26,-245.383,12.1494,-17.1642,2.31694,19109.4,3236.98,-51.4418,23.4908,-30.7767,2.77411
208,1,20357.9,2771.29,873.898,6.00599,4.1771,-1.78357,20701.5,3663.13,724.25,21.8902,-14.1463,-2.94209
209,0,21000.7,3112.47,1467.65,-3.39954,21.0521,4.52758,21154,4242.54,1436.53,9.61867,3.58264,2.89646
209,1,20599.7,3055,1355.11,-12.3629,40.7168,10.0763,21307.2,4430.47,1580.17,2.19505,15.8995,9.46656
210,0,19178.7,2622.84,926.549,-17.4848,53.8721,10.061,19868.3,3539.81,820,-8.70446,42.0889,11.1128
210,1,16877.9,2053.02,565.027,-20.6251,71.6619,4.57307,18952.5,3022.68,714.672,-13.0031,53.8111,9.60363
211,0,15544.3,1780.09,329.2,-23.6738,86.2197,-0.152499,15454.5,2497.14,305.252,-16.7836,73.0339,3.46026
211,1,13660.1,1648.41,44.2881,-25.9147,94.9239,-3.71956,13761.9,2217.03,138.863,-18.8415,80.9909,1.08231
212,0,11311.4,1323.99,-697.923,-25.2591,95.8537,-6.53968,10736.7,1663.96,-835.596,-17.5457,82.3324,-3.2013
212,1,8808.23,1039.08,-1576.59,-21.8597,90.6097,-5.36582,9217.67,1364.69,-1173.16,-15.5488,80.4116,-2.9268
213,0,6238.05,535.095,-2840.74,-21.8141,76.4784,-9.14643,5470.68,660.786,-2822.8,-13.9634,64.4205,-7.13425
213,1,3211.77,298.076,-3788.84,-18.5213,57.454,-10.7012,3621.22,271.739,-3464.41,-13.8262,55.3506,-9.6799
214,0,579.359,372.301,-4764.48,-3.78021,39.8778,-4.9694,-40.772,93.3714,-4766.88,5.21381,31.3867,-5.19807
214,1,-924.18,47.8767,-5565.33,3.247,21.3564,0.198237,-1403.01,102.952,-5348.65,14.0549,20.4115,-1.95119
215,0,-1177.95,-10.7726,-5537.78,2.71339,8.81082,2.14941,-1934.52,-5.98811,-5516.24,13.0487,-7.02799,2.5763
215,1,-21.5241,691.938,-4861.41,-2.40863,-7.50029,-0.670796,-1821.98,99.3624,-5489.9,11.4329,-19.2684,2.85059
216,0,2237.42,1170.77,-4378.99,-10.4117,-22.8661,-3.85675,988.862,1347.96,-4577.69,2.08823,-36.4333,-0.929951
216,1,3689.48,1243.79,-4124.01,-17.3629,-37.0734,1.50927,2420.55,1729.81,-4205.41,-2.10368,-45.1068,-1.15852
217,0,5799.99,1322.8,-3588.9,-19.8781,-43.7653,19.6802,6014.31,1777.7,-3372.22,-5.2897,-55.8691,24.3908
217,1,8379.75,1339.56,-2706.63,-19.0854,-41.6158,41.7992,7688.99,1781.29,-2955.64,-6.08232,-58.3079,37.744
218,0,11075.6,1167.17,-1532.27,-16.2042,-32.4541,57.8051,11422.8,1489.19,-1681.9,-3.42982,-46.1583,59.7413
218,1,14226.4,1021.13,-348.338,-7.63704,-17.454,58.125,13642.2,1185.13,-436.924,-0.960332,-38.628,67.0732
219,0,16737.9,599.739,391.462,-1.95115,1.1436,41.707,17283.8,954.086,294.497,7.75933,-16.5849,46.4935
219,1,18277.4,541.091,1180.36,0.914674,16.8143,20.2131,18529.9,864.306,696.718,10.3506,-5.60967,35.2286
220,0,18674.8,1064.23,1655.6,2.16465,26.1892,3.46012,18844.8,1617.3,1599.34,12.1342,10.2747,8.81044
220,1,17958.9,1485.61,1340.74,2.05792,31.2196,-3.4147,18832.8,2069.79,1764.52,12.9726,16.2653,-1.4787
221,0,16444.5,1509.54,588.96,0.533506,39.3904,-7.46958,16712.7,2189.5,618.877,9.98469,28.9942,-5.9757
221,1,15332.5,1449.69,153.224,-2.91165,50.2289,-8.24695,15694,2189.5,90.9762,8.04877,35.0763,-7.02744
222,0,13856.4,1458.07,-275.341,-6.55494,62.0124,-9.67992,13546.3,1935.71,-342.379,2.75904,48.9027,-7.86588
222,1,12507.3,1454.48,-841.572,-8.67381,70.2136,-14.3903,12931.1,2000.36,-785.305,1.41769,55.7623,-7.34755
223,0,10878,1314.41,-1450.9,-12.058,70.3506,-19.2684,10553.6,1851.91,-1601.74,-2.68302,57.3171,-15.1221
223,1,9038.08,1258.15,-2024.31,-14.558,64.695,-21.8903,9294.28,1581.37,-1788.47,-5.04575,56.2805,-18.6738
224,0,6912.02,1204.28,-2767.71,-11.814,57.4542,-19.8628,6257.18,1308.43,-2867.08,-1.57004,46.4785,-17.9573
224,1,4660.28,889.439,-3902.57,-8.58227,45.6858,-17.561,4979.93,1171.96,-3447.66,0.792708,40.7012,-16.936
225,0,2100.87,553.055,-4612.44,-5.57922,29.9388,-8.88702,1613.62,531.499,-4341.9,2.71345,23.1704,-11.631
225,1,147.215,305.257,-5266.06,-2.30177,19.07,-0.259014,149.629,246.601,-4677.07,4.42076,14.0091,-7.14933
226,0,-422.58,367.513,-5428.85,-1.92074,4.52716,11.5856,-870.313,518.351,-5261.27,7.7897,-9.55844,12.7596
226,1,-246.598,507.573,-5195.41,-5.54886,-10.9606,15.3811,-1042.67,646.435,-5427.65,7.77437,-19.8019,19.314
227,0,1350.36,781.712,-4669.88,-8.81103,-25.7777,11.2499,1707.13,1007.97,-4669.87,4.55786,-39.848,12.2559
227,1,3782.88,725.44,-4412.51,-12.6678,-40.4728,2.5913,3213.03,1017.53,-4505.89,2.63717,-49.2836,7.54568
228,0,6554.18,845.157,-3827.12,-14.9086,-49.0398,-2.6525,6653.56,1211.47,-3776.84,-0.335427,-61.0521,-0.183085
228,1,9483.48,1191.12,-3008.3,-14.3445,-49.3902,-4.00916,8268.39,1363.5,-3305.19,-0.67072,-64.3598,-3.04879
229,0,12338.6,1485.61,-1977.59,-11.8292,-40.7773,-1.8597,12548.1,1884.25,-1935.68,1.57017,-54.9846,-1.17373
229,1,15306.2,1666.37,-645.213,-8.12494,-24.6948,-2.24088,14662.1,2142.81,-1309.62,2.94209,-48.7347,0.152454
230,0,17852.4,1898.61,379.497,-1.82915,-7.393,-2.30182,18118.2,2540.26,266.989,9.66479,-24.1763,-2.78971
230,1,19351.2,1977.61,980.434,-0.426838,3.43003,-2.10366,19470.9,2773.69,691.922,12.6067,-13.2316,-3.52134
231,0,19572.6,1849.52,1379.07,-4.8934,19.4211,-1.75304,19874.3,2760.51,1240.21,5.50288,7.83584,-1.67679
231,1,18720.2,1816,1283.29,-10.0458,35.732,-0.777419,19819.2,2671.93,1478.42,0.762142,19.7257,-0.228638
232,0,17816.4,1783.68,1055.84,-12.8354,52.165,-0.350607,17873.9,2371.45,919.36,-3.33849,39.8937,1.34149
232,1,16389.5,1628.05,648.82,-13.3537,67.546,-0.945137,16894.7,2232.59,681.149,-4.35976,48.7348,2.17989
233,0,14841.6,1443.7,395.04,-15.5031,79.7868,-6.55501,14666.8,1872.26,460.879,-7.5763,65.9608,-3.53673
233,1,13268.6,1351.53,-174.789,-14.9847,83.811,-12.1952,13506.9,1721.43,345.961,-7.74388,72.2714,-6.85979
234,0,11237.1,1278.5,-848.756,-14.4817,81.2805,-16.3568,11196.4,1594.54,-707.512,-6.47864,68.0792,-13.2166
234,1,9245.18,1341.95,-1596.95,-9.78648,77.9725,-20.6556,9482.21,1448.49,-1268.93,-5.10668,67.0885,-15.4116
235,0,6956.31,952.882,-2667.16,-8.50611,66.2193,-24.4665,6421.18,1286.88,-2698.3,0.823308,57.4236,-20.244
235,1,3897.7,451.298,-3530.26,-8.55183,47.835,-22.3018,5037.39,1022.32,-3157.95,1.31094,50.6249,-22.8354
236,0,1200.65,280.12,-4632.8,-5.60969,36.7529,-16.9359,1140.75,384.255,-4535.85,6.66173,25.0756,-14.2986
236,1,-287.325,191.534,-5385.77,-1.20418,23.9022,-5.28939,-557.86,181.959,-5163.1,9.78662,14.2987,-8.3231
237,0,-757.769,243.013,-5481.52,-1.43296,9.4662,2.40864,-1240.21,317.235,-5377.38,9.31401,-5.06143,3.15575
237,1,-495.592,537.505,-5090.06,-3.76529,-5.03076,2.74388,-1273.71,493.209,-5228.93,8.75,-13.9635,6.32621
238,0,1127.71,954.098,-4531.02,-7.31715,-22.0583,0.503002,788.939,1168.39,-4511.86,6.28043,-33.72,3.88714
238,1,3363.9,1077.39,-4181.47,-10.0763,-42.5766,0.335377,1869.88,1382.65,-4252.1,4.52742,-43.5214,2.4695
239,0,5697.05,1222.24,-3714.59,-9.34448,-58.5826,8.62825,5385.84,1567.01,-3641.57,5.67077,-68.8878,11.2197
239,1,8282.79,1423.36,-3021.47,-6.2042,-61.2195,20.0764,7104.81,1635.24,-3338.71,6.84453,-77.7287,16.7226
240,0,11194.1,1528.7,-1883.02,0.13733,-50.7162,27.9727,11662.3,1576.58,-1730.97,12.5611,-64.9082,28.857
240,1,14316.2,1622.07,-628.455,9.77154,-32.7283,26.067,13873.2,1588.55,-908.592,16.7684,-57.0274,32.3018
241,0,17064.7,1446.09,456.115,12.2866,-19.1766,22.7743,17070.7,2138.04,110.156,22.0885,-31.2951,23.5516
241,1,18916.6,1242.59,1525.13,7.91148,-3.38383,15.3047,18472.5,2242.17,721.859,22.0427,-19.4969,19.3902
242,0,19567.8,1337.17,1989.59,2.98772,9.55815,6.32605,19794.1,2195.48,1807.65,14.1614,-2.83497,6.29541
242,1,19188.3,1383.85,1971.62,0.274351,24.0095,0.472469,20037.1,2242.17,2042.25,11.5244,5.01532,1.11278
243,0,17920.6,1329.98,1437.71,-1.93602,39.5278,-2.33236,17763.7,2059.01,1174.33,8.03345,26.8146,-0.625036
243,1,16145.3,1254.56,884.648,-4.64945,53.4759,-4.37504,16685.2,1934.51,845.152,6.15852,36.2501,-1.14329
244,0,14481.3,1242.59,350.74,-6.09758,66.0673,-9.40561,14730.3,1804.03,293.276,3.62799,51.8906,-5.45743
244,1,12689.2,1280.9,-190.349,-6.06707,74.4971,-15.305,13796.6,1716.64,-53.8739,2.36279,59.9849,-10.0915
245,0,11244.3,1253.36,-1148.04,-6.43294,78.2013,-22.2563,11294.6,1775.3,-1212.69,3.84151,67.1191,-16.6922
245,1,8884.83,1143.23,-1881.85,-10.1983,73.5822,-25.3202,10007.8,1818.4,-1695.1,2.92679,67.7744,-21.372
246,0,6637.88,1527.51,-3094.53,-10.1219,68.2164,-24.5884,6425.95,1881.84,-2993.98,2.34756,54.3747,-22.6829
246,1,4031.78,1221.03,-4309.59,-9.14633,56.7681,-23.9329,5017.04,2076.97,-3992.35,3.27747,47.317,-22.5305
247,0,1872.23,925.355,-5106.85,-12.8507,42.6979,-19.9999,1863.81,1219.82,-4924.89,-2.57638,29.8471,-18.5975
247,1,934.924,976.837,-5442.02,-13.9634,25.9295,-12.82,544.673,932.542,-5282.81,-4.45122,17.7437,-14.5731
248,0,505.169,1161.19,-5529.41,-12.2561,9.17651,-6.55477,-57.474,1197.11,-5424.07,-0.685879,-3.33891,-6.02114
248,1,1058.25,1294.07,-5166.68,-10.7927,-5.86919,-2.01212,-106.539,1279.7,-5333.08,0.777445,-12.4239,-1.96643
249,0,2792.88,1404.2,-4593.26,-12.0885,-21.2656,0.167713,2414.62,1655.6,-4511.85,0.853659,-32.8359,1.96655
249,1,4947.66,1403,-4034.22,-15.0915,-38.9028,3.10982,3547.02,1738.19,-4223.37,0.167665,-42.7593,3.24696
250,0,7350.25,1278.5,-3463.2,-16.0976,-49.741,8.26231,6881.02,1540.66,-3506.29,-1.43296,-60.9151,10.3356
250,1,10022.2,1225.83,-2549.8,-13.1859,-43.7346,10.7927,9211.72,1375.47,-3105.28,-1.57011,-65.5793,13.0031
251,0,12901.2,1152.81,-1040.25,-8.99382,-25.3959,9.64935,13102.4,1491.59,-1268.88,3.20134,-44.2983,11.9664
251,1,15866.4,968.45,594.991,-7.01217,-12.8199,7.95729,14830.9,1523.91,-319.617,5.12196,-32.9267,10.9908
252,0,18385.1,961.273,1805.25,-2.68282,2.0735,5.73166,18372,1406.59,1598.18,10.0001,-9.42015,6.21939
252,1,19421.8,926.555,2242.17,1.31105,17.0582,-0.457464,19822.8,1444.9,2266.11,12.8202,0.487873,3.2774
253,0,19390.6,841.56,2574.97,0.777402,31.2808,-5.74704,19585.8,1441.31,2612.08,10.5792,19.8176,-4.55812
253,1,18325.2,718.258,2264.9,-1.70737,42.9118,-10.2288,18948.9,1395.82,2461.23,9.28353,27.6677,-7.92686
254,0,16564.2,763.752,1516.71,-1.46339,58.1406,-12.4391,16832.4,1340.75,1340.73,8.04876,44.2382,-10.1982
254,1,14785.4,761.355,694.302,-0.335345,75.2595,-14.9086,15865.2,1247.38,931.343,8.32319,53.5977,-10.8537
255,0,13004.1,723.048,10.7613,-3.99401,85.6557,-19.5885,13065.1,1296.46,-20.3753,4.00903,71.2657,-15.4727
255,1,10928.3,990.01,-690.742,-6.26527,88.0488,-25.5794,11743.5,1249.77,-405.819,1.72254,76.7531,-18.5214
256,0,8188.11,1003.17,-1909.4,-8.36895,84.3749,-28.4604,7590.71,1154,-1817.24,-0.548834,72.6066,-26.3874
256,1,5433.59,905.006,-3343.53,-10.1525,78.2621,-30,6005.85,1148.02,-2695.88,-0.807916,70.2592,-26.7378
257,0,2673.07,697.905,-4729.77,-11.0518,62.7436,-24.9236,2475.51,776.908,-4379.04,-1.40246,48.9934,-21.692
257,1,986.384,600.944,-5390.55,-9.34447,43.8411,-15.4724,859.506,640.449,-5130.78,-1.28048,38.5365,-18.0487
258,0,-726.677,621.296,-5849.04,-5.83834,24.8167,-5.74676,-1691.57,543.481,-5701.8,4.74101,12.4079,-4.78625
258,1,-1600.53,768.542,-5926.85,-2.5914,5.97523,0.625107,-2565.39,530.316,-5894.53,7.62198,0.701129,1.03663
259,0,-922.943,1162.39,-5590.45,-0.274348,-13.8114,1.31096,-1254.53,1157.61,-5404.9,12.1343,-25.8086,2.68296
259,1,1051.1,1357.51,-5130.76,0.701232,-34.5279,0.0914361,-410.595,1422.16,-5141.55,14.0854,-37.6525,3.00305
260,0,3371.08,1405.4,-4708.19,0.624994,-57.9121,1.90555,2354.77,1559.83,-4660.3,15.183,-65.3971,2.98781
260,1,5801.2,1495.18,-4333.5,-0.594544,-74.5735,11.9057,3702.65,1703.48,-4428.07,15.4878,-78.613,4.45126
261,0,8610.81,1533.49,-3513.47,-2.7592,-75.9603,23.9637,8312.79,1802.84,-3617.62,11.4633,-88.5216,22.5005
261,1,12218.9,1756.15,-2462.41,0.304977,-69.3444,29.558,10504.6,1738.19,-2947.25,10.5336,-88.8262,30.2745
262,0,15662.9,1631.64,-1000.74,6.64648,-48.3074,28.1402,15876.1,2068.6,-1198.25,19.3143,-54.7857,26.9359
262,1,18671.2,1418.56,617.737,9.17686,-20.3195,22.1188,18216.3,2181.12,-244.197,21.6921,-37.9572,24.7866
263,0,20134.1,1391.03,1484.42,7.16457,1.93639,14.1919,20587.8,2275.69,1374.31,18.0944,-11.3408,14.451
263,1,20925.3,1477.22,2136.84,2.37794,19.4363,7.69805,21455.6,2343.92,1982.4,14.756,2.46967,8.90238
264,0,20730.2,1474.83,2231.39,-2.34766,36.9516,2.19501,20991.2,2327.16,2063.8,7.94191,23.6286,3.18584
264,1,19290,1325.19,1726.21,-6.67692,53.7961,-3.30804,20442.9,2285.26,1887.82,5.09144,33.3995,0.2896
265,0,17332.8,1156.4,1199.48,-8.79576,70.3662,-7.25617,17659.6,1836.34,1116.88,1.06697,55.6409,-3.68913
265,1,15397.1,1108.52,675.154,-9.69514,84.8936,-13.6435,16457.7,1733.4,744.593,-0.22866,65.8843,-5.88418
266,0,13218.3,1159.99,-15.5777,-10.2896,91.7837,-20.1983,13622.9,1604.11,38.2889,-1.52443,77.8357,-15.5033
266,1,11121,1059.43,-1066.64,-12.8049,93.2013,-27.1648,12397.2,1620.88,-397.443,-2.22562,81.1433,-20.1982
267,0,8269.51,876.274,-1972.84,-15.5184,88.2621,-30.747,8301.78,1268.92,-1632.88,-7.3477,73.0333,-28.2319
267,1,5391.68,882.265,-3442.9,-15.1982,77.4388,-26.8596,6512.22,1069.01,-2304.43,-8.75,68.2622,-28.3079
268,0,3679.86,889.446,-4467.6,-12.1798,64.2833,-22.5762,2605.98,1033.1,-4374.26,-3.39924,50.3654,-22.195
268,1,1104.86,785.295,-5149.94,-8.76518,48.4296,-17.3932,586.558,785.291,-4960.78,-1.55488,41.4786,-19.9695
269,0,-851.173,758.962,-5823.91,-6.92071,28.2618,-9.93886,-1716.7,840.369,-5773.64,3.04891,14.1304,-8.88689
269,1,-1452.09,905.012,-5908.89,-8.04882,6.73736,-4.13099,-2671.94,961.274,-5984.31,3.97864,1.52428,-4.10058
270,0,-634.438,1035.49,-5287.58,-8.94819,-15.031,-2.63719,-1380.22,1040.28,-5092.44,3.91769,-24.3147,-0.929799
270,1,1391.08,1192.32,-4766.85,-9.2683,-38.0493,-0.0456598,-542.276,1180.34,-4637.56,4.32928,-36.3873,0.228665
271,0,3821.2,1292.87,-4357.44,-10.0153,-58.0797,7.14958,3034.75,1504.76,-4209,4.72562,-66.632,8.26243
271,1,6604.47,1426.95,-3800.78,-9.32925,-67.927,17.9576,4720.18,1628.06,-4055.78,4.77134,-78.4757,12.7897
272,0,9466.74,1695.1,-2801.19,-8.42986,-67.0731,25.3812,8773.66,2000.37,-3133.98,6.44822,-75.7316,29.6956
272,1,12981.4,1735.8,-1419.73,-6.72252,-54.0545,34.4819,11368.9,2272.1,-2345.11,7.37806,-71.0518,37.9574
273,0,15200.8,1698.69,-525.512,-0.64008,-33.6276,34.7713,16271.1,2124.85,-553.013,12.5764,-45.8682,35.1523
273,1,17795,1622.07,458.513,2.63724,-8.13966,24.4662,18345.6,2213.44,130.488,15.5488,-32.3779,31.5243
274,0,19824,1577.78,1726.25,1.96643,15.1834,11.6308,20408.2,2379.84,1771.76,12.9115,0.686895,12.8501
274,1,20615.3,1757.35,2393.01,-1.29582,30.9759,0.319884,21098.9,2489.97,2461.24,10.8841,13.3842,4.51213
275,0,20008.3,1923.74,2242.16,-5.00008,44.7259,-8.82641,20029.9,2639.61,2039.85,5.15228,31.342,-7.39362
275,1,18222.2,1793.25,1335.94,-8.52142,60.6559,-13.3537,19217,2624.04,1562.21,3.21646,40.0001,-11.9208
276,0,16278.1,1619.67,743.39,-12.7745,79.6804,-15.061,16786.9,2303.21,737.393,-2.8203,62.5159,-11.4634
276,1,14408.3,1558.62,73.0065,-15.7775,94.1924,-18.7044,15678.4,2199.07,401.026,-5.36587,72.9879,-11.2653
277,0,12252.3,1472.43,-703.913,-16.7226,99.619,-21.4635,12527.6,1892.61,-618.93,-8.01837,85.5644,-17.4087
277,1,9896.38,1370.68,-1496.39,-16.8293,100.366,-24.6647,10955.9,1751.36,-1084.58,-8.79573,89.3903,-20.0915
278,0,7460.28,1417.37,-2610.9,-16.7378,95.5182,-23.628,7328.55,1838.75,-2548.67,-7.49996,81.9358,-18.4756
278,1,5945.97,1136.04,-3343.52,-18.0793,85.5333,-21.2042,6066.9,1814.8,-3254.92,-7.34757,77.3933,-17.0884
279,0,3774.4,621.283,-3945.66,-18.2622,73.6431,-13.5669,3080.05,693.088,-3925.31,-9.58848,61.8898,-11.0212
279,1,1979.97,620.102,-4594.49,-10.3961,60.9144,-4.54248,1659.17,246.6,-4201.83,-6.4633,52.4237,-5.92979
280,0,925.339,457.286,-4964.38,-1.76811,44.1917,2.2105,148.4,292.095,-4770.46,6.93634,33.1702,3.49111
280,1,527.916,366.312,-4878.18,1.0671,22.4995,5.36591,-417.792,240.615,-4893.75,11.5701,22.9572,6.96649
281,0,1255.78,790.099,-4460.39,1.34146,1.21905,3.44505,712.31,883.48,-4346.66,13.0031,-7.28745,5.45727
281,1,3148.42,1203.09,-4000.7,2.11893,-19.97,-4.51241,1521.53,1210.27,-4041.41,13.8262,-20.366,3.64326
282,0,5153.56,1181.54,-3906.14,3.79578,-38.4303,-10.6861,4114.51,1352.73,-3807.97,17.0275,-44.4824,-7.6985
282,1,7091.67,1266.54,-3790.02,4.35976,-44.9544,-12.9116,5398.94,1413.78,-3881.01,18.6433,-56.7075,-12.1189
283,0,9004.64,1515.54,-3250.11,4.34451,-45.5336,-17.8965,8725.76,1881.86,-3484.75,18.4756,-57.1341,-18.049
283,1,10016.2,1760.94,-2803.6,3.32314,-40.7773,-22.058,9919.18,2045.85,-3071.75,17.7134,-55.5335,-21.7226
284,0,11347.4,2160.78,-2480.39,-0.62511,-32.4388,-20.503,11864.5,2965.25,-2530.66,11.7834,-43.7802,-19.8932
284,1,12557.6,2342.73,-2217.03,-8.6435,-21.265,-18.689,12756.3,3213.02,-2390.61,8.14019,-38.2622,-18.811
285,0,13364.5,2523.49,-1849.51,-16.1739,-8.55154,-18.9939,13625.4,3236.96,-1909.36,-3.23204,-20.9446,-18.9939
285,1,13469.8,2608.48,-1607.7,-18.933,1.41789,-18.6585,13749.9,3179.5,-1514.33,-7.0122,-13.5365,-19.497
286,0,13022,2475.6,-1787.28,-22.1038,8.64345,-14.9999,12925.1,3155.56,-1831.58,-9.77143,-5.51807,-15.6554
286,1,12220,2172.73,-1912.97,-26.7989,15.8386,-8.71936,12561.2,3080.14,-1966.84,-11.8598,-2.13412,-12.9115
287,0,11547.2,1875.85,-1976.41,-31.1586,24.177,-1.24982,11768.7,2505.51,-2007.54,-19.1618,7.91189,-2.05761
287,1,11051.6,1719.03,-1991.98,-32.9269,28.6739,3.82632,11243.2,2268.5,-1963.24,-21.9665,12.9879,3.0031
288,0,10778.7,1521.51,-1769.31,-36.2349,33.2471,10.2288,10760.7,2096.12,-1786.07,-26.2959,19.3599,13.2778
288,1,10586,1371.87,-1619.68,-37.8049,36.7989,13.5214,10651.8,1818.39,-1668.76,-28.0031,21.5092,16.6159
289,0,10485.4,1186.32,-1511.94,-36.5244,39.7105,12.6524,10461.5,1570.59,-1507.15,-26.0975,25.4727,15.3201
289,1,10259.1,966.055,-1254.55,-36.0366,40.2896,11.0061,10277.1,1502.36,-1435.32,-25.6098,26.7226,13.4603
290,0,9988.6,762.549,-1106.12,-35.3049,39.1006,12.7135,9824.59,1017.52,-1053.44,-25.3506,24.6036,14.1769
290,1,9896.43,659.601,-1042.67,-32.4542,40.1373,16.0672,9694.12,946.91,-1133.66,-24.375,24.314,16.4025
291,0,10143,451.301,-979.227,-29.7103,38.3231,16.6768,10044.9,703.887,-982.813,-19.8322,23.628,18.7958
291,1,10102.3,366.312,-926.555,-27.3018,34.5883,15.6707,10024.5,587.776,-877.474,-18.4146,22.7591,18.3384
292,0,10024.5,402.227,-849.94,-24.2835,33.2317,12.5304,9925.16,615.311,-805.647,-15.2133,19.8627,15.7012
292,1,10134.7,438.14,-817.62,-21.875,32.7439,9.57311,9957.49,652.421,-763.75,-13.5061,19.1921,14.1158
293,0,10143,538.698,-756.566,-18.3231,30.8841,3.46019,9949.1,664.391,-645.234,-7.1187,16.9816,4.74055
293,1,10053.2,731.434,-830.791,-13.0639,27.7438,-1.78365,9933.54,737.417,-629.676,-3.68898,15.5793,0.655453
294,0,10016.1,831.987,-869.095,-9.72555,24.6951,-3.9787,9877.28,1120.5,-798.472,0.930017,11.6615,-2.02752
294,1,10062.8,944.516,-910.995,-6.93591,22.0426,-5.42687,9923.97,1233.01,-852.336,2.63721,9.8323,-3.03355
295,0,10201.7,1124.08,-985.216,-6.31098,20.5792,-6.70735,10092.8,1503.57,-927.756,4.16163,8.07922,-4.71042
295,1,10113.1,1237.8,-1001.97,-5.19814,20.3964,-6.189,10127.5,1562.22,-924.161,4.72562,7.74391,-5.3811
296,0,10019.7,1356.32,-1040.28,-3.26214,20.6555,-2.89624,9925.16,1698.69,-1076.2,7.59156,8.12501,-1.44804
296,1,10031.7,1284.49,-1096.55,-2.14937,21.4634,-1.84451,9909.6,1744.18,-1119.29,8.53659,8.32318,0.381114
297,0,10009,1142.03,-1161.19,-1.63109,21.4787,-3.20127,9890.45,1513.13,-1165.98,9.17685,8.94819,-0.960416
297,1,9865.3,1127.67,-1221.04,-0.746926,20.7622,-5.21347,9749.19,1375.47,-1193.51,9.66465,8.82621,-2.10368
298,0,9691.72,1185.13,-1307.24,0.0152607,20.2744,-6.82931,9551.66,1462.86,-1290.48,11.1738,8.03352,-4.60374
298,1,9515.75,1298.86,-1413.78,1.60066,19.6341,-8.47566,9453.5,1559.82,-1325.19,11.9207,7.39328,-6.18905
299,0,9428.37,1399.41,-1484.41,2.5305,19.0396,-10.2744,9233.23,1774.11,-1480.82,13.7501,6.7073,-8.42995
299,1,9295.48,1476.03,-1574.19,2.59146,18.5366,-10.6402,9078.81,1810.02,-1557.43,14.1006,6.57013,-9.1311
300,0,9241.62,1583.77,-1678.34,1.55484,18.7348,-10.0152,9032.12,1958.46,-1677.14,12.7439,6.58537,-8.41461
300,1,9179.37,1663.97,-1726.22,0.62498,19.6647,-7.80481,9011.77,2090.14,-1692.7,12.0884,6.9055,-7.94207
301,0,9138.67,1731.01,-1790.86,-0.167703,21.0366,-4.75602,9039.31,2141.61,-1757.35,10.9146,8.56713,-3.29253
301,1,9235.64,1776.5,-1799.24,-0.548787,21.814,-3.36888,9103.95,2164.36,-1810.02,10.4116,9.35977,-1.53963
302,0,9313.45,1771.71,-1806.43,-0.746956,21.4482,-3.44513,9143.46,2126.05,-1823.18,10.1829,9.26829,-1.87502
302,1,9317.04,1806.43,-1835.16,-1.61588,20.3201,-4.40552,9136.27,2140.42,-1788.47,9.98476,8.93292,-1.875
303,0,9352.95,1830.37,-1868.68,-2.34758,19.6341,-5.33539,9210.5,2243.37,-1816,8.6585,7.28653,-3.84153
303,1,9430.76,1816,-1891.42,-3.41467,19.0091,-6.23478,9211.69,2227.8,-1879.45,8.04878,6.4939,-4.7866
304,0,9473.86,1788.47,-1896.21,-5.00005,18.7043,-5.68595,9303.87,2187.1,-1892.62,5.74688,6.12804,-3.78045
304,1,9538.5,1727.41,-1845.93,-6.57016,18.8415,-3.82617,9301.47,2139.22,-1859.1,4.63414,6.21952,-3.00304
305,0,9640.26,1634.04,-1707.06,-7.77442,19.1311,-2.10362,9479.85,2011.13,-1679.53,3.2774,6.28049,-0.990789
305,1,9707.29,1515.53,-1569.4,-8.36892,19.1616,-0.563985,9525.33,1954.87,-1641.23,2.82012,6.18902,0.137213
306,0,9803.06,1452.08,-1468.84,-8.65855,19.0549,0.73174,9634.27,1851.91,-1456.87,2.48475,6.11281,2.27141
306,1,9870.1,1405.4,-1363.49,-8.62805,19.2531,1.03659,9751.59,1772.9,-1386.24,2.28658,5.96036,2.83536
307,0,9865.31,1379.06,-1364.7,-8.68903,20.1067,1.99699,9759.96,1800.44,-1430.54,2.21037,7.1037,3.76528
307,1,9855.73,1410.19,-1356.31,-8.81098,21.3263,3.41467,9746.79,1757.34,-1377.86,2.05792,7.95734,4.22257
308,0,9822.21,1411.38,-1328.78,-8.8872,21.9208,4.55796,9697.71,1766.92,-1337.16,1.875,9.20736,6.73789
308,1,9786.3,1350.33,-1318.01,-8.90244,22.2866,5.45734,9671.38,1762.13,-1352.72,1.82927,9.57317,7.69818
309,0,9745.6,1302.44,-1306.04,-8.67378,21.6921,4.48167,9599.55,1649.6,-1313.22,2.4238,8.65851,6.18897
309,1,9713.28,1267.73,-1338.36,-8.0945,20.5488,2.57617,9537.3,1610.1,-1276.11,2.75915,8.03353,4.98473
310,0,9684.55,1280.9,-1407.79,-7.3323,19.375,0.792637,9516.95,1623.27,-1405.4,3.71955,6.41763,2.5609
310,1,9677.36,1327.59,-1459.27,-6.67682,18.125,-0.686014,9478.64,1663.97,-1461.66,4.11586,5.96037,1.4634
311,0,9609.13,1383.85,-1480.81,-6.38719,16.9817,-1.95125,9445.13,1737,-1472.43,4.83234,4.46641,-0.167737
311,1,9579.2,1416.17,-1513.14,-6.43293,16.6159,-2.85063,9477.45,1778.89,-1489.19,4.96951,4.05488,-0.762199
312,0,9569.62,1472.44,-1587.36,-6.55488,16.9512,-3.09452,9458.29,1843.54,-1551.44,4.84756,4.4055,-1.38722
312,1,9588.78,1528.7,-1605.31,-7.08844,17.5762,-2.92682,9411.61,1877.05,-1610.1,4.67987,4.42073,-1.2195
313,0,9595.96,1541.87,-1618.48,-7.9421,17.8354,-2.91159,9428.37,1993.18,-1637.63,3.44508,5.03051,-1.23476
313,1,9570.82,1531.09,-1652,-8.5366,18.0488,-2.78963,9394.85,1976.41,-1617.28,3.04878,5.3811,-1.18902
314,0,9594.76,1498.77,-1675.94,-9.25307,18.5671,-2.3323,9419.99,1958.46,-1677.14,1.99691,6.0671,-0.198136
314,1,9594.76,1507.15,-1662.77,-9.77136,19.2683,-1.82926,9497.8,1893.81,-1732.21,1.28048,6.37196,0.0762179
315,0,9573.22,1527.5,-1671.15,-10.6098,19.497,-1.15852,9436.74,1911.77,-1667.56,0.51827,6.76831,0.884177
315,1,9570.82,1528.7,-1657.98,-11.0366,19.3293,-0.792677,9394.85,1878.25,-1649.61,0.167678,6.52438,1.34147
316,0,9586.38,1520.32,-1641.22,-11.0518,18.9482,-1.18904,9436.75,1873.46,-1623.27,0.304885,6.17377,0.624972
316,1,9616.31,1456.87,-1612.49,-10.8994,18.3384,-1.61586,9437.94,1862.69,-1635.24,0.274387,5.77743,0.18292
317,0,9642.65,1407.79,-1568.2,-10.8537,17.439,-1.57012,9508.58,1793.25,-1520.31,0.152436,4.6646,0.213418
317,1,9663,1416.17,-1505.95,-10.4421,16.4634,-1.15852,9540.89,1742.98,-1490.39,0.396352,4.2378,0.426836
318,0,9678.56,1371.88,-1489.19,-10.1677,16.0823,0.198216,9528.92,1758.54,-1483.21,1.08234,3.42985,1.53967
318,1,9718.07,1337.16,-1471.24,-9.89329,16.311,1.20429,9610.33,1766.92,-1443.7,1.37196,3.21647,1.98171
319,0,9744.4,1306.04,-1443.7,-9.81708,17.0884,2.40857,9628.28,1669.95,-1431.73,1.35671,4.51224,4.11593
319,1,9742.01,1283.29,-1407.79,-9.54268,18.186,2.97257,9660.61,1626.86,-1403,1.34146,5.16769,4.95428
320,0,9671.38,1242.59,-1387.44,-9.40549,18.933,3.00305,9546.88,1590.95,-1411.38,1.61586,5.92991,5.22867
320,1,9612.72,1223.44,-1391.03,-8.61278,19.2226,3.12501,9519.35,1540.67,-1406.59,1.98172,6.11281,5.21341
321,0,9575.61,1177.95,-1418.57,-7.3018,19.5884,2.5762,9441.53,1509.54,-1417.37,3.58237,6.78356,4.31399
321,1,9488.22,1177.95,-1444.9,-6.17376,19.3293,1.73778,9396.04,1499.97,-1404.2,4.2683,6.96646,3.88719
322,0,9400.83,1197.1,-1508.35,-5.3201,18.5671,1.52439,9239.22,1545.46,-1498.77,5.56407,6.08229,3.38413
322,1,9308.65,1230.62,-1574.19,-4.43595,17.5305,1.47866,9188.95,1561.02,-1550.25,5.97561,5.70122,3.09451
323,0,9227.25,1268.93,-1647.21,-3.33838,16.1128,1.73782,9109.93,1589.75,-1581.37,7.75921,3.9786,3.50612
323,1,9211.69,1332.38,-1741.78,-2.95731,14.9542,2.0122,9018.96,1610.1,-1693.9,8.35366,3.00304,3.61281
324,0,9331.41,1393.43,-1756.15,-2.97256,13.4603,2.57624,9173.39,1753.76,-1768.12,8.21646,0.899319,4.1921
324,1,9755.19,1382.65,-1748.96,-3.58234,13.3232,3.20124,9296.69,1814.81,-1720.23,8.21647,-0.0304978,4.57318
325,0,10149,1370.68,-1747.77,-4.10062,13.872,4.45126,10140.7,1787.27,-1721.43,7.31704,1.02138,6.41775
325,1,10740.4,1448.49,-1442.5,-3.52132,15.2592,5.73174,10623.1,1798.05,-1610.1,7.33233,1.63111,7.37807
326,0,11342.5,1399.41,-1035.48,-2.51522,16.3567,6.85979,11378.5,1787.27,-1024.7,8.85676,3.35372,8.68907
326,1,12119.5,1406.59,-847.544,-2.48477,18.0946,6.49388,11836.9,1792.06,-814.028,9.32927,3.90244,8.94817
327,0,12876,1568.21,-757.763,-2.33231,21.4788,3.90235,12858.1,2000.36,-729.032,8.36887,8.10991,6.43284
327,1,13539.2,1862.7,-565.025,-0.79263,25.183,0.137086,13291.4,2140.42,-689.53,8.59759,10.2897,5.10669
328,0,13868.4,2087.75,-342.365,0.152456,29.619,-4.78673,13779.8,2501.95,-379.47,10.3812,15.8539,-1.05205
328,1,13910.3,2214.64,-398.639,-0.655523,34.4971,-9.7105,13961.8,2675.52,-302.867,10.9604,18.5366,-4.23785
329,0,13564.3,2215.83,-575.811,-1.79881,37.8355,-12.5153,13613.4,2764.11,-602.152,8.41454,26.0673,-9.98496
329,1,12746.7,2142.81,-827.204,-3.07931,43.4758,-14.3751,13339.3,2732.98,-720.656,7.33231,29.5732,-11.997
330,0,12109.9,2024.29,-960.077,-3.87197,51.2502,-14.3597,12135,2495.95,-979.238,6.20423,38.9028,-10.6554
330,1,11024.1,1826.77,-1215.07,-4.71039,58.7807,-15.5336,11481.4,2333.15,-1091.76,5.44206,45.0916,-10.5031
331,0,9302.62,1462.85,-1741.8,-6.31103,61.3415,-17.1647,8777.05,1742.96,-1819.62,3.42981,48.8111,-12.119
331,1,7031.7,1029.49,-2383.45,-6.85976,56.2803,-15.8231,7463.91,1391.03,-2217.04,2.43901,48.5061,-12.5305
332,0,4681.8,682.339,-3312.41,-4.55784,43.7649,-6.37163,3994.6,800.841,-3433.33,5.97575,31.7372,-1.98133
332,1,2001.48,32.3011,-4274.87,-2.27129,25.3653,3.90271,2244.54,453.695,-3982.76,7.37806,23.6737,2.66773
333,0,-338.839,-75.4143,-4568.14,10.9456,-1.15933,15.2595,-1058.35,-920.619,-3666.71,14.4362,-5.82422,15.4425
333,1,-1769.35,-292.102,-5363.04,24.9241,-31.4948,18.4604,-2234.99,-1209.07,-4039.04,30.8999,-25.7016,21.5854
334,0,-2577.38,-168.784,-5754.47,25.1981,-49.3602,16.3871,-3045.45,130.531,-5662.34,35.5183,-61.5713,15.762
334,1,-1764.49,506.396,-5224.13,9.70984,-63.5827,7.62166,-3274.07,664.395,-6062.12,31.1432,-74.5733,12.1798
335,0,-287.262,945.718,-4791.99,-8.15597,-67.6525,-3.38445,648.973,1151.63,-5031.38,6.23389,-78.552,-2.8359
335,1,2958.14,938.524,-4223.35,-17.0733,-65.7012,-15.854,2596.54,1119.28,-4643.55,-3.18604,-78.2622,-10.0611
336,0,7309.62,1078.59,-3144.75,-12.1492,-65.7318,-31.5249,7917.81,1083.38,-3038.18,4.00943,-77.7592,-32.8972
336,1,11422.8,1102.53,-2336.72,-5.70107,-60.7163,-42.7137,11110.3,1321.61,-2444.48,8.96351,-76.8293,-43.0337
337,0,15867.7,1127.67,-851.089,-3.90243,-52.012,-40.6706,16426.8,1646.02,-695.451,9.57317,-64.5423,-40.5792
337,1,19302.1,1358.72,683.586,0.426988,-37.9417,-35.0456,18880.7,1757.35,293.305,9.6494,-59.7256,-39.6342
338,0,21230.6,1898.62,1644.84,7.54595,-13.8102,-24.5576,21562.3,2625.27,1569.44,18.6131,-29.4501,-28.902
338,1,21709.4,2334.36,1962.05,7.98775,11.2659,-9.81664,22383.4,3116.06,1988.39,22.1799,-14.3291,-22.2407
339,0,20496.7,2470.82,1646,4.93893,26.2961,-0.518089,21226.9,3356.68,1735.79,13.9631,17.1505,0.320937
339,1,18398.2,2603.7,970.828,-0.0306432,48.1105,9.00944,19995.1,3432.09,1248.56,10.3811,31.5551,9.37508
340,0,17201.1,2560.6,735.018,-7.39352,73.6898,10.7622,17383,3229.77,699.091,0.883795,62.181,13.43
340,1,15739.4,2199.06,384.257,-14.6039,86.6161,2.75885,16257.8,3113.66,542.286,-3.47566,74.2227,12.5609
341,0,13315.3,1800.43,-287.326,-18.6739,88.8263,-5.71669,12539.5,2099.68,-336.419,-9.89353,75.4574,-0.686458
341,1,10261.5,1787.27,-1652.04,-14.1004,86.4634,-3.65838,10785.9,1820.79,-831.993,-9.87798,75.4726,-4.74085
342,0,6995.76,1344.33,-2885.04,-12.8659,76.8442,10.1682,5824.91,1397,-2846.78,-5.73158,62.8959,13.2324
342,1,3970.7,681.131,-3660.75,-8.93278,62.1947,30.0159,3705.01,980.415,-3578.14,-4.02437,56.1585,24.1008
343,0,1484.34,293.281,-4124.02,2.50038,44.8471,43.1101,939.626,61.0207,-3943.26,8.78097,35.8225,42.4244
343,1,264.535,33.5118,-4277.24,9.83247,27.9264,42.8963,-171.195,-197.521,-4246.12,16.4178,26.1279,49.1312
344,0,620.12,183.164,-3968.38,8.59747,16.9205,35.9144,98.1755,361.545,-4036.61,16.2347,2.56013,34.1458
344,1,2296.1,745.812,-3489.54,-0.305181,0.593987,14.7401,527.933,639.255,-3787.62,13.4603,-8.55197,23.8108
345,0,4759.75,1100.14,-3470.4,-7.42395,-19.4975,-7.74451,3788.94,1306.06,-3576.93,5.31985,-35.2296,-7.60783
345,1,6191.44,1167.17,-3508.7,-12.2867,-36.6621,-20.6558,5455.21,1478.42,-3581.73,2.40852,-47.6526,-18.8263
346,0,7969.16,1430.55,-3276.46,-17.2562,-41.7226,-23.7653,8270.87,2025.52,-3259.69,-2.63738,-53.9484,-22.5154
346,1,10192.2,1841.15,-2541.42,-21.7837,-33.8412,-20.0303,9622.31,2305.62,-2973.59,-5.7775,-54.0548,-22.8658
347,0,12675,2139.23,-1571.76,-20.9451,-20.9905,-14.7864,13104.8,2473.22,-1511.89,-7.37809,-35.6548,-14.6643
347,1,14795,2227.81,-509.934,-14.8626,-6.69166,-10.8231,14614.2,2536.66,-835.568,-6.46337,-27.4085,-11.3719
348,0,16226.7,2099.71,360.35,-9.43584,6.46377,-6.28035,16339.3,2621.65,368.75,0.914896,-8.49018,-5.85346
348,1,16700.8,1928.52,818.827,-7.31704,17.4546,-2.04257,16912.6,2633.62,818.82,3.64331,-0.792622,-3.12497
349,0,16032.7,1786.07,689.522,-5.7774,28.5674,0.10675,16370.3,2359.48,745.79,4.32929,11.784,0.762329
349,1,14240.7,1612.49,96.9458,-4.26825,36.0215,0.762206,15861.6,2230.2,616.503,5.061,20.2288,2.45429
350,0,12272.6,1565.81,-572.233,-2.43897,48.3541,0.350591,13089,2066.19,-374.728,7.07324,37.6226,2.75915
350,1,11038.4,1504.75,-1049.87,-2.54575,59.0399,-1.69214,11787.8,2051.83,-841.567,7.54573,45.1678,2.30181
351,0,8981.78,1426.94,-1728.64,-2.97257,60.0305,0.792799,8069.52,1819.58,-1899.84,6.63107,46.0976,4.74095
351,1,6666.59,1070.2,-2681.53,-3.68905,54.0852,9.55822,6621.16,1756.15,-2606.1,6.25,44.2835,7.7135
352,0,4439.99,318.405,-3491.96,-8.88738,41.0972,15.1983,3788.72,727.799,-3666.75,0.319903,26.3713,17.1955
352,1,2717.38,87.3877,-3756.51,-10.2744,23.5208,21.0215,2388.2,45.4773,-3584.11,-1.55488,17.5914,22.5916
353,0,1856.69,573.43,-4055.79,-4.83212,6.23429,17.637,1461.63,450.129,-3930.1,5.65576,-3.90321,19.8474
353,1,2306.84,1067.83,-4286.82,-1.63105,-8.04916,4.90813,1300.06,744.601,-4193.45,9.69519,-12.9269,16.4633
354,0,3802.04,1400.62,-4071.33,-4.03974,-22.3327,-6.64664,3227.46,1464.08,-3958.8,8.68897,-31.0373,-2.6074
354,1,5931.7,1675.95,-3894.17,-5.9604,-31.235,-9.1311,4272.47,1754.95,-3768.47,7.9878,-39.619,-9.45125
355,0,8523.43,2012.34,-3289.61,-10.991,-38.3386,-4.87789,7660.37,2419.36,-3469.19,0.792416,-49.8327,-3.42964
355,1,10358.6,2242.18,-2753.32,-15.7166,-34.6797,-2.37801,10033,2730.59,-3025.06,-2.50004,-51.2347,-1.1128
356,0,13104.8,2472.02,-1812.38,-16.0823,-22.3472,-3.47567,13939.2,2913.75,-1559.77,-3.17075,-34.7555,-3.68913
356,1,16064,2507.93,-549.432,-10.5943,-9.51185,-3.64328,15643.7,2935.29,-816.412,-2.37802,-27.5304,-4.66464
357,0,18497.7,2395.4,602.172,-5.27426,2.92718,-2.98779,18849.7,2990.36,696.765,5.24418,-10.4262,-4.19206
357,1,19861.1,2321.18,1296.48,-3.76523,15.0003,-0.92981,19994,2979.58,1308.44,7.95733,-2.78956,-3.33839
358,0,20104.1,2304.42,1515.53,-5.21347,28.7809,-0.442078,20298.1,3058.6,1459.27,4.89318,15.1683,-0.548686
358,1,19385.8,2335.55,1315.61,-6.64638,46.2353,-4.14648,20254.9,3081.34,1440.11,3.65853,24.2532,-0.289656
359,0,17798.4,2310.4,999.57,-7.68296,64.4365,-9.61906,18283.2,2992.75,1052.24,1.81396,47.135,-6.34168
359,1,16005.2,2151.18,513.541,-8.2927,73.8112,-12.5458,17177.2,2870.64,849.939,0.853646,57.2257,-8.79575
360,0,14049.1,2069.79,-304.089,-9.51224,82.7442,-18.1252,14526.7,2710.23,-232.277,-1.50923,70.7932,-16.5094
360,1,11258.6,1786.06,-1325.22,-10.7013,89.0703,-25.8539,13134.6,2570.17,-792.488,-2.30183,76.372,-20.9909
361,0,9124.25,1515.52,-2020.72,-11.7988,88.2164,-30.1525,7514,1729.78,-2226.66,-3.41468,73.6737,-26.5856
361,1,5639.43,938.508,-3331.57,-13.7653,72.8654,-20.4417,4815.9,1442.51,-3101.7,-3.41462,68.5517,-25.6707
362,0,1764.42,159.192,-4697.46,-14.8323,51.0207,-2.2708,479.887,111.281,-4750.15,-5.44216,40.3954,-2.81931
362,1,-1209.15,93.3789,-5615.62,0.00055666,32.2861,11.7686,-1416.19,-628.489,-5066.12,-4.78654,27.6218,7.9422
363,0,-2894.63,-58.6652,-6211.77,8.88734,12.3317,10.7011,-3689.54,-257.359,-6106.45,16.205,3.33757,12.2867
363,1,-3426.11,108.945,-6089.64,3.18572,-15.4124,-1.41807,-4562.16,-43.0935,-6330.26,22.2713,-9.08554,10.8841
364,0,-2445.64,768.56,-5562.91,-9.66502,-40.5342,-16.2504,-2864.6,1143.27,-5614.38,7.33178,-47.6691,-11.1136
364,1,150.917,1206.69,-5200.2,-21.2656,-58.4304,-27.3174,-1715.42,1535.88,-5370.19,-0.533645,-62.7898,-20.3202
365,0,3026.35,1525.12,-4686.63,-24.2378,-67.7899,-28.2926,1780.21,1601.72,-4727.33,-6.4636,-80.0006,-23.0946
365,1,6274.1,1891.43,-3882.17,-20.8535,-74.1465,-15.9142,3496.75,1759.74,-4468.78,-6.28042,-88.0337,-17.0577
366,0,8589.25,1987.19,-3497.92,-12.4693,-71.5548,1.86026,9275.34,2074.59,-3544.58,3.24728,-83.3687,4.98548
366,1,11948.4,1800.43,-2620.42,-3.47537,-51.6609,14.2381,11880.1,2078.16,-3054.99,7.63725,-77.7286,13.5519
367,0,15720.4,1705.87,-1232.97,2.56112,-25.2737,16.4177,16683,2315.2,-988.732,14.238,-38.8706,15.2592
367,1,18451,1795.66,125.732,3.6128,-6.28004,16.875,18606.6,2446.88,-4.77687,16.2348,-23.2316,15.8842
368,0,19949.7,1997.97,1007.98,-1.58556,7.91196,16.3872,20185.6,2971.22,897.855,10.1827,-7.74337,15.7927
368,1,20192.7,2287.67,1285.69,-6.08242,23.1254,14.2377,20742.2,3094.5,1253.37,5.381,2.28678,16.0976
369,0,19200.3,2519.9,997.173,-7.92687,39.8785,9.43583,19495.9,3298.02,916.966,3.03349,23.5068,11.9206
369,1,17593.7,2456.45,549.457,-11.9818,53.0644,5.62491,18741.8,3432.09,654.809,1.92071,32.8355,9.57314
370,0,16060.3,2306.81,187.936,-14.7866,59.1007,3.81094,16408.6,2956.82,216.661,-4.69536,46.0828,6.52429
370,1,14725.5,2230.2,-120.915,-16.2653,65.8387,-0.869062,15405.5,2798.82,53.8684,-7.14941,51.6007,4.60362
371,0,13843.3,2148.79,-253.787,-16.4939,70.0306,-8.39962,13655.3,2589.32,-240.628,-7.1189,56.738,-6.02172
371,1,12352.8,1910.57,-484.834,-15.7774,71.1128,-15.1374,12619.8,2274.48,-396.243,-7.39331,58.247,-10.9147
372,0,10708,1576.57,-1295.29,-14.8171,69.4817,-20.0459,9841.27,1891.41,-1350.36,-5.5792,57.7287,-18.8113
372,1,8246.75,1051.04,-2227.83,-12.0578,63.0029,-13.8412,8516.16,1622.07,-1765.73,-4.84756,54.6341,-20.1829
373,0,5571.23,524.316,-3559.02,-5.50284,53.7193,-5.09123,4824.19,729.004,-3711.08,4.10094,42.1337,-5.91413
373,1,2692.2,225.049,-4436.47,4.90885,44.329,6.66194,3155.54,403.421,-4559.76,7.57624,36.006,4.70E-05
374,0,592.515,-288.518,-5220.58,11.7227,31.9966,15.9149,514.663,-140.08,-5319.94,20.2291,20.4263,15.0158
374,1,-705.123,-411.802,-5486.32,7.56078,16.6307,17.8354,-1151.64,-344.766,-5668.28,23.5213,12.881,20.2439
375,0,-648.816,-43.0825,-5176.25,2.39317,6.35648,16.067,-1237.8,162.825,-5323.49,13.6277,-6.69276,17.256
375,1,1083.44,547.092,-4610.02,-5.39659,-6.29612,11.1431,-910.984,450.114,-5102.04,9.0091,-15.5336,15.1219
376,0,3584.19,764.95,-4242.52,-11.2806,-20.1986,7.04259,2451.78,944.529,-4388.55,2.40831,-34.5129,9.72543
376,1,5297.21,713.469,-3937.26,-13.7348,-31.6162,8.30801,4035.45,1100.14,-4175.49,0.32012,-42.9727,8.82625
377,0,8211.01,818.822,-3169.9,-15.2897,-32.439,8.70426,9356.73,1219.85,-2905.32,-1.66166,-43.5518,10.183
377,1,11862.2,1077.4,-1887.79,-11.7377,-23.3229,2.83515,11797.5,1237.8,-2153.57,-1.85974,-41.4634,9.26825
378,0,15380.4,1353.93,-470.421,-4.20709,-11.1582,-7.08872,15852.2,1708.28,-367.447,7.4851,-25.2433,-3.82669
378,1,17808.1,1662.78,693.151,0.792792,-0.0454336,-13.9636,17568.7,1964.45,324.419,11.5549,-18.2774,-10.1983
379,0,19166.8,2177.54,1407.81,5.1983,12.4089,-16.0976,19437.4,2768.92,1381.49,15.7776,-2.17931,-14.9392
379,1,19194.3,2415.75,1383.84,4.192,26.0522,-15.6097,19938.9,3216.62,1561.01,17.8049,5.77754,-16.7378
380,0,17972,2378.64,913.373,-0.777596,38.8876,-12.6676,18112.1,3143.58,854.706,10.5942,23.3543,-11.8138
380,1,16087.8,2370.26,344.749,-3.79579,47.2258,-11.2652,17216.7,3116.05,486.017,7.14936,31.0519,-9.34449
381,0,14253.8,2227.8,-186.762,-6.02141,61.5859,-12.6525,14985.2,2827.54,-77.8306,3.1706,50.3818,-10.1372
381,1,13202.8,2035.07,-635.672,-9.14644,73.6131,-19.0246,13983.3,2725.8,-378.289,1.21949,61.1587,-13.369
382,0,10982.1,1577.76,-1302.47,-15.3051,76.0366,-23.7654,10119,1833.93,-1419.8,-6.47894,62.8659,-20.046
382,1,8043.24,1031.89,-2286.49,-16.067,67.0576,-18.9327,8285.11,1307.23,-1917.76,-9.05488,62.1951,-20.3506
383,0,4759.58,406.996,-3568.6,-13.4908,50.1367,-2.5147,3588.74,393.815,-3675.16,-4.05469,38.1241,-0.243172
383,1,1654.31,25.1309,-4496.33,-6.93576,34.3289,14.8938,1502.34,-86.1988,-4364.63,-1.87498,26.7529,9.2989
384,0,-26.3711,41.9019,-5120.02,1.67708,18.4904,19.314,-474.119,-131.68,-5030.24,10.595,9.74026,19.8632
384,1,-399.834,373.507,-5154.71,3.94817,-0.457877,10.1978,-1211.47,-49.0783,-5249.29,16.7531,-2.4088,20.0761
385,0,365.145,1073.82,-4698.6,1.26514,-17.4547,-3.38455,-207.059,1096.59,-4663.88,15.2438,-24.6349,1.75239
385,1,2537.93,1410.19,-4386.17,-1.73788,-28.232,-9.17692,333.998,1631.65,-4442.44,13.689,-33.7044,-6.17386
386,0,5139.23,1430.53,-3872.6,-6.00624,-43.2475,-6.55475,4215.14,1775.3,-3945.63,7.97236,-56.7844,-1.67663
386,1,7007.87,1400.61,-3505.1,-8.29273,-49.9239,4.63453,6137.56,1819.59,-3603.27,6.02134,-65.2592,3.03365
387,0,10152.7,1432.93,-2715,-7.378,-42.8198,11.1434,11026.7,1741.78,-2570.14,7.30188,-52.7587,10.4271
387,1,13712.9,1474.83,-1340.71,-2.83521,-28.155,1.26483,13524.9,1775.3,-2015.91,8.65858,-45.4115,8.94804
388,0,16441.1,1796.86,-111.298,4.1618,-13.5819,-8.735,16851.7,2363.1,-211.821,16.5552,-26.7371,-7.30241
388,1,17885.9,2094.93,377.095,4.39018,-0.777084,-12.0885,18197.1,2774.89,317.23,19.4055,-18.8414,-13.1403
389,0,17946.9,2378.65,420.181,-0.777615,13.5218,-6.00585,18063,3294.44,305.261,11.0058,-0.79202,-6.28022
389,1,16919.8,2501.94,56.2502,-5.06108,30.1072,1.50935,17869.1,3403.36,266.952,7.0274,8.01841,-1.9359
390,0,15182.8,2450.46,-525.545,-7.21042,47.1499,6.9971,15774.1,3160.34,-539.923,3.0334,31.1594,7.36314
390,1,13661.3,2298.43,-895.44,-8.58236,56.3417,7.86584,14355.6,3019.09,-905.012,1.14327,41.3263,10.8842
391,0,12421.1,2104.5,-1189.93,-11.4635,62.1038,1.47842,12570.7,2659.95,-1146.83,-2.78978,48.9332,2.86554
391,1,11208.4,1964.44,-1501.17,-13.872,62.2408,-8.11005,11848.9,2479.19,-1280.9,-4.16159,50.7012,-2.02752
392,0,10360.9,1877.05,-1716.65,-12.195,60.5945,-14.0398,10005.3,2144,-1780.11,-1.73771,48.2164,-10.8845
392,1,9515.73,1717.83,-2167.97,-9.77128,58.2621,-16.5092,9363.72,2007.54,-2039.86,0.137236,47.1646,-12.6372
393,0,8371.29,1646.01,-2572.58,-8.47558,53.5517,-11.7833,7809.83,1910.57,-2665.97,1.44821,40.4418,-8.06386
393,1,7194.54,1368.28,-2946.08,-8.18598,49.4969,-6.35657,7082.04,1756.14,-2910.15,1.67683,37.4085,-5.73167
394,0,6294.33,1091.75,-3252.53,-9.45127,45.8993,-5.12195,6115.95,1419.75,-3299.22,0.640204,33.4297,-3.64322
394,1,5692.2,1025.92,-3366.25,-11.5702,41.3871,-4.48168,5602.42,1289.28,-3359.06,-0.0152566,31.6921,-3.04878
395,0,5422.86,992.395,-3326.74,-13.186,35.884,-3.90243,5139.14,1289.28,-3294.42,-2.08849,24.8016,-1.63104
395,1,5901.73,1031.9,-3201.04,-14.7257,28.0028,-6.84464,5037.4,1264.14,-3362.66,-2.92684,21.2347,-1.29574
396,0,6554.15,1102.53,-2888.59,-14.6189,21.7834,-10.0153,6056.17,1211.46,-2858.66,-1.98167,7.62143,-8.06429
396,1,7241.28,1310.83,-2580.94,-11.9359,13.704,-14.116,6615.19,1308.44,-2631.23,-0.914606,1.5853,-11.4482
397,0,7790.75,1359.91,-2494.76,-10.5945,6.56993,-18.3995,7641.13,1571.8,-2513.91,1.34154,-6.00638,-16.5856
397,1,8392.89,1365.89,-2331.95,-9.46643,2.10355,-20.6403,8048.11,1643.62,-2397.79,2.0122,-9.13113,-19.0397
398,0,8954.33,1516.73,-2117.66,-8.14021,0.609734,-19.1615,8825.06,1890.23,-2097.31,4.11594,-11.2653,-17.2713
398,1,9411.62,1569.4,-1909.37,-7.94208,1.66164,-15.5639,9203.32,1980.01,-1977.61,4.81708,-11.7073,-15.8536
399,0,9835.39,1592.15,-1775.3,-8.49088,3.85678,-12.0121,9795.9,2014.72,-1788.46,3.39933,-8.7194,-10.762
399,1,10163.4,1624.47,-1679.53,-9.02441,6.23483,-10.7927,10043.7,2032.68,-1667.56,2.7439,-7.24084,-9.19208
400,0,10273.5,1640.03,-1610.1,-9.42075,7.65247,-10.9451,10137.1,2035.07,-1564.61,2.27133,-5.10663,-9.52746
400,1,10235.2,1681.93,-1619.68,-9.87807,8.2927,-9.89325,10143,2081.76,-1529.89,2.17988,-4.45122,-9.54268
401,0,10153.8,1709.46,-1710.66,-10.0915,8.55184,-8.36886,10050.9,2129.64,-1663.98,1.37192,-3.90242,-6.85965
401,1,10056.8,1778.89,-1874.67,-10.6708,9.28357,-5.33526,9982.62,2144.01,-1748.97,1.09756,-3.81098,-5.42681
402,0,9927.55,1829.17,-1977.61,-11.4025,10.5641,-1.38707,9782.7,2288.86,-1930.93,-0.320179,-1.96639,0.0611887
402,1,9792.28,1924.94,-2097.32,-13.2318,12.8354,3.06416,9720.46,2419.34,-2080.56,-1.06708,-0.838395,3.20128
403,0,9726.44,1946.49,-2152.39,-15.4726,14.9848,7.82027,9612.72,2439.69,-2194.29,-4.58856,1.93608,9.64964
403,1,9762.36,1857.9,-2181.12,-17.6373,16.8598,12.2715,9544.48,2397.79,-2211.04,-6.05185,3.21648,12.8812
404,0,9828.2,1735.79,-2188.3,-19.8629,18.0031,14.1311,9663,2201.46,-2232.59,-8.76535,4.31406,15.6251
404,1,9765.95,1622.07,-2155.98,-21.936,18.8263,14.2073,9716.87,2129.64,-2212.24,-9.95429,5.00002,16.128
405,0,9649.83,1515.53,-2141.61,-23.125,20.2592,14.1921,9609.12,1953.66,-2152.39,-11.8446,6.63116,15.8537
405,1,9558.85,1395.82,-2147.6,-23.6281,21.4025,14.1159,9532.51,1863.88,-2096.12,-12.439,7.27135,15.6555
406,0,9434.35,1267.73,-2160.77,-23.9482,21.6006,14.2226,9325.41,1666.36,-2154.78,-13.125,7.95735,15.8842
406,1,9284.71,1134.85,-2139.22,-24.1616,21.2195,14.2683,9199.72,1578.97,-2146.4,-13.4451,7.8506,15.9756
407,0,9214.08,1022.32,-2073.38,-24.3445,20.3658,13.125,9103.95,1387.43,-2024.29,-13.3841,6.14323,14.6951
407,1,9289.51,974.439,-2014.72,-23.7043,19.3902,10.4115,9075.22,1322.8,-2012.33,-13.2622,5.79269,13.7652
408,0,9354.15,906.203,-1911.77,-22.2865,18.1402,6.93587,9224.87,1242.59,-1909.37,-11.2194,4.48165,8.65834
408,1,9470.27,914.586,-1871.07,-20.4725,16.8445,5.03045,9296.69,1194.71,-1854.31,-10.1829,3.79572,6.78353
409,0,9566.04,978.034,-1863.89,-18.9481,16.0213,4.32926,9436.75,1255.76,-1859.1,-7.7743,3.12498,5.88411
409,1,9665.4,1021.13,-1898.6,-17.7286,16.0366,4.57319,9524.14,1318.01,-1880.65,-6.875,2.83536,5.92989
410,0,9821.02,1076.2,-1806.42,-17.6677,15.686,4.64939,9721.66,1460.47,-1757.34,-6.50914,2.48474,6.26526
410,1,9907.21,1149.22,-1725.02,-17.378,15.9604,4.86282,9815.03,1503.56,-1699.88,-6.35671,2.46952,6.3872
411,0,10000.6,1154,-1705.87,-16.7988,16.6921,5.3049,9894.04,1521.52,-1716.64,-5.47253,3.41467,6.95125
411,1,10023.3,1088.16,-1632.84,-16.6006,17.1189,5.70123,9934.74,1516.73,-1720.23,-5.2744,3.99392,7.22562
412,0,10162.2,1082.18,-1565.81,-15.8079,17.9269,5.97562,10105.9,1437.71,-1571.79,-4.20727,5.09151,7.30183
412,1,10230.4,1047.46,-1551.44,-13.7194,18.5823,4.80178,10125.1,1380.26,-1490.39,-3.42986,5.42683,6.90547
413,0,10237.6,1016.34,-1544.26,-11.2804,18.8567,2.4237,10141.8,1391.03,-1504.76,-0.502931,5.88417,4.02428
413,1,10151.4,1082.18,-1545.46,-9.02432,18.9024,-0.243988,10119.1,1347.93,-1545.46,0.975633,6.08232,2.74389
414,0,9971.84,1177.95,-1614.89,-7.2408,18.9939,-2.37811,9838.96,1553.85,-1617.29,3.81109,6.37197,-0.076334
414,1,9759.96,1270.13,-1716.65,-6.3262,19.2073,-3.36893,9716.87,1617.28,-1626.86,4.69512,6.37195,-1.34148
415,0,9612.72,1379.06,-1818.4,-6.52441,19.7256,-3.35365,9476.24,1789.67,-1831.57,4.69512,7.07321,-1.73782
415,1,9509.77,1472.44,-1922.55,-6.87501,20.1525,-2.24081,9378.09,1826.77,-1861.49,4.37499,7.50001,-1.41767
416,0,9431.96,1483.21,-1945.29,-7.13416,20.1067,-0.975572,9327.81,1873.47,-1877.06,3.81096,7.37804,0.640325
416,1,9431.96,1501.17,-1897.4,-7.19513,19.878,-0.442064,9306.26,1869.87,-1857.9,3.93294,7.50001,1.37196
417,0,9437.94,1479.62,-1885.43,-7.42379,19.5427,-0.640256,9339.78,1855.51,-1851.92,3.70426,6.87497,0.945103
417,1,9430.76,1452.08,-1875.86,-7.72867,18.9024,-1.05184,9344.57,1853.11,-1860.3,3.46036,6.60061,0.426814
418,0,9435.55,1435.32,-1868.67,-7.75915,18.5366,-0.152397,9234.43,1792.06,-1887.83,3.41464,6.03657,1.90556
418,1,9459.49,1388.64,-1806.42,-7.65244,18.1555,1.6464,9187.75,1782.48,-1871.07,3.32317,5.71646,2.80489
419,0,9513.36,1345.54,-1750.16,-6.61581,17.8659,2.77442,9396.05,1717.84,-1765.72,4.25309,5.3506,4.16164
419,1,9643.85,1332.37,-1723.82,-5.41155,17.8964,2.34753,9481.04,1652,-1729.81,5.07624,5.15244,4.25304
420,0,9725.25,1295.26,-1776.5,-4.39021,17.6067,0.990806,9554.06,1659.18,-1746.57,6.47871,5.12195,2.317
420,1,9739.61,1383.85,-1874.66,-3.96341,17.0884,0.0609524,9562.44,1720.24,-1781.29,7.02745,4.89329,1.43292
421,0,9707.29,1510.75,-1994.37,-4.35978,16.997,-0.990891,9510.96,1939.31,-1981.21,6.79877,4.54267,0.335323
421,1,9585.18,1613.7,-2054.23,-5.24394,16.9207,-1.96649,9491.81,1999.16,-2073.38,6.24998,4.35975,-0.365869
422,0,9544.49,1684.32,-2106.9,-7.36289,16.936,-2.92686,9336.18,2129.65,-2133.24,3.17061,4.32927,-1.63115
422,1,9643.85,1649.6,-2139.22,-9.81715,16.8598,-3.58234,9446.33,2177.53,-2149.99,1.69205,4.19207,-2.19513
423,0,9688.14,1618.48,-2105.7,-11.8903,16.6463,-3.81098,9539.7,2045.84,-2078.16,-0.716559,3.68901,-2.21036
423,1,9763.56,1556.23,-2017.11,-13.1098,16.4482,-3.93293,9570.82,2044.65,-1996.76,-1.78355,3.58232,-2.37806
424,0,9819.82,1447.29,-1930.92,-12.4847,16.7683,-4.64942,9792.29,1879.44,-1862.68,-0.746903,3.96343,-3.2165
424,1,9819.82,1381.45,-1817.2,-12.2866,17.6677,-6.20433,9817.42,1783.68,-1777.69,-0.457321,4.58844,-4.02442
425,0,9791.09,1297.65,-1807.62,-12.6372,18.064,-5.18287,9625.88,1663.97,-1805.23,-1.44821,5.25917,-3.10971
425,1,9732.43,1277.31,-1800.44,-12.0122,19.2988,-2.31697,9621.1,1638.83,-1790.86,-1.44816,5.3811,-1.87496
426,0,9690.53,1274.91,-1763.33,-11.0366,20.6098,0.213489,9585.18,1663.97,-1756.15,-0.198122,7.42387,1.75319
426,1,9613.91,1280.9,-1723.82,-10.3811,20.5945,0.74695,9531.32,1624.46,-1697.49,0.685997,8.20123,3.00306
427,0,9601.95,1319.21,-1721.43,-9.9695,19.939,0.228637,9479.84,1677.14,-1684.32,1.17379,6.76823,2.08837
427,1,9634.27,1356.32,-1763.33,-9.83232,18.9329,-1.21957,9499,1760.94,-1685.52,1.32622,5.91462,1.35669
428,0,9683.35,1404.2,-1808.82,-9.0396,17.8811,-2.33235,9592.37,1766.92,-1793.26,2.2104,5.15241,-0.243966
428,1,9764.75,1482.01,-1884.24,-8.68902,17.439,-2.65244,9601.95,1801.64,-1829.17,2.6372,4.71036,-0.823175
429,0,9844.96,1589.75,-1909.38,-8.70427,17.9269,-2.54573,9768.35,1997.97,-1904.59,2.45426,5.09149,-0.899393
429,1,9867.7,1629.25,-1921.35,-9.31406,18.8415,-2.04266,9797.07,2066.2,-1875.85,2.42378,5.51831,-0.914635
430,0,9912,1607.71,-1921.35,-10.3354,19.8171,-0.884102,9773.13,2025.49,-1929.73,1.06701,6.84457,0.686046
430,1,9908.4,1581.37,-1934.52,-10.8842,21.0671,0.0914917,9757.57,2021.9,-1946.49,0.426821,7.48477,1.35671
431,0,9873.69,1507.15,-1939.3,-11.25,22.3629,0.670748,9743.2,1899.79,-1890.22,-0.137217,9.29886,2.31711
431,1,9803.06,1459.26,-1946.49,-10.9756,23.1403,1.02135,9739.61,1829.17,-1918.95,-0.304878,9.92379,2.75915
432,0,9721.65,1411.38,-1923.74,-10.5335,23.2012,1.23476,9599.55,1798.04,-1934.52,0.609797,10.3049,3.03355
432,1,9625.88,1398.21,-1951.28,-9.64936,22.8963,0.960352,9552.87,1747.77,-1912.97,1.2805,10.1982,2.65242
433,0,9572.02,1369.48,-1974.02,-8.61277,22.2104,0.899393,9427.16,1715.44,-1956.07,2.27138,9.29875,2.82014
433,1,9508.57,1381.46,-2013.53,-7.75912,21.3262,1.0061,9345.76,1716.64,-1994.37,2.69818,8.97866,2.8811
434,0,9504.98,1435.33,-2011.13,-6.96644,20.4116,0.716449,9350.56,1783.68,-1983.6,3.79578,7.68287,2.45425
434,1,9531.32,1468.84,-2006.34,-6.26522,19.1311,0.015217,9356.54,1805.23,-1963.24,4.51221,6.89023,2.13414
435,0,9570.82,1460.46,-1988.38,-5.96036,17.9116,-0.914668,9399.64,1859.1,-1954.87,5.13722,5.48775,0.655424
435,1,9635.47,1488,-1960.85,-5.91464,17.1189,-1.66161,9414,1833.96,-1982.4,5.25915,4.78658,0.0914593
436,0,9725.25,1509.54,-1985.99,-6.28051,17.2256,-2.05794,9597.17,1902.2,-1974.02,4.87803,4.60366,-0.259161
436,1,9777.92,1534.68,-2025.5,-6.90551,17.8202,-1.90548,9672.58,1965.64,-1953.67,4.71037,4.52744,-0.411588
437,0,9787.5,1581.37,-2024.3,-7.21038,18.308,-1.7378,9706.09,1974.02,-2045.85,3.82618,5.70128,0.0305087
437,1,9769.54,1598.13,-2027.89,-7.71344,18.9177,-1.47865,9686.94,2008.74,-2060.21,3.35365,6.46343,0.137193
438,0,9774.33,1592.14,-2048.24,-8.18599,19.2683,-1.12804,9641.45,2013.52,-2039.86,2.69814,6.53964,0.670757
438,1,9788.69,1589.75,-2065,-8.38415,19.5579,-1.17379,9668.99,1957.26,-2038.66,2.68294,6.61586,0.716457
439,0,9803.06,1582.57,-2082.96,-8.32317,19.5884,-1.49392,9685.74,1975.22,-2075.77,2.78964,6.82928,0.0304588
439,1,9767.14,1623.27,-2069.79,-8.70429,19.4817,-1.58537,9658.21,2015.92,-2073.38,2.48474,6.93598,-0.182927
440,0,9732.43,1655.59,-2027.89,-8.97867,19.1768,-0.853626,9605.54,2079.37,-1975.21,2.24085,6.76829,0.914684
440,1,9757.57,1647.21,-1990.78,-9.25306,19.314,-0.472555,9609.13,2086.55,-1958.46,2.14939,6.38718,1.18902
441,0,9753.98,1563.41,-1953.67,-9.42074,19.5732,-0.243894,9643.85,1993.17,-1923.74,1.63108,6.73783,1.47867
441,1,9720.46,1479.61,-1893.81,-9.45122,19.497,-0.228661,9628.28,1895.01,-1899.8,1.60062,6.70731,1.7683
442,0,9718.07,1431.73,-1855.51,-8.90242,18.9482,-0.975644,9558.85,1821.99,-1842.34,1.96648,6.46341,1.23473
442,1,9666.59,1411.38,-1862.69,-8.44511,18.5061,-1.44818,9556.46,1751.36,-1853.11,2.34757,6.0823,0.807917
443,0,9612.72,1393.42,-1917.76,-8.17073,18.2317,-2.3476,9530.12,1765.73,-1927.34,3.0793,5.65548,-0.640307
443,1,9572.02,1417.37,-1930.92,-8.20123,18.2165,-2.57622,9451.11,1812.41,-1912.97,3.15548,5.45732,-0.96036
444,0,9558.85,1419.76,-1944.09,-8.73478,18.5061,-2.01217,9460.69,1827.97,-1893.81,2.46948,5.7927,-0.13716
444,1,9589.98,1403,-1895.01,-8.99391,18.6433,-1.7378,9485.83,1814.8,-1909.38,2.21036,5.82317,0.304887
445,0,9622.3,1369.48,-1859.1,-9.11586,18.3841,-1.98172,9497.8,1734.6,-1811.21,1.87499,5.56402,-0.182952
445,1,9661.8,1316.81,-1813.61,-8.82621,17.7439,-2.25611,9532.52,1695.09,-1776.5,1.90549,5.35061,-0.457322
446,0,9715.67,1306.04,-1843.54,-8.03351,17.0579,-2.77441,9618.71,1629.25,-1816,3.09457,4.34447,-0.853676
446,1,9737.22,1350.33,-1904.59,-7.48474,16.8903,-3.10977,9618.7,1673.55,-1872.27,3.56708,4.39026,-1.57015
447,0,9761.16,1479.62,-1916.56,-7.69819,17.4391,-3.07927,9595.96,1871.08,-1875.86,3.73476,4.83233,-1.53962
447,1,9732.43,1586.16,-1951.28,-8.30796,17.9878,-3.14025,9634.27,1997.96,-1901,3.41462,5.12196,-1.41768
448,0,9724.05,1605.31,-1952.47,-9.5275,18.9787,-2.89633,9583.99,2063.8,-1971.63,1.60053,6.18908,-0.9451
448,1,9718.06,1600.52,-1952.47,-10.6555,19.9086,-2.07314,9601.95,2049.44,-1941.7,0.716448,6.7988,-0.564013
449,0,9668.98,1534.68,-1906.98,-11.4177,20.8994,-1.23473,9564.83,1953.66,-1892.61,-0.442125,8.12506,0.609811
449,1,9595.96,1416.17,-1866.28,-11.7683,21.4787,-0.807916,9451.11,1860.29,-1867.48,-0.701215,8.67379,1.06708
450,0,9540.89,1315.61,-1818.39,-11.7835,21.311,-0.731708,9375.69,1673.54,-1833.96,-0.670732,8.53658,1.1433
450,1,9510.97,1228.22,-1772.9,-11.3567,20.6707,-1.05185,9311.05,1600.52,-1774.1,-0.899402,8.52135,1.02134
451,0,9479.84,1138.44,-1758.54,-10.5335,19.6189,-1.57014,9297.88,1440.1,-1717.84,0.442144,7.16457,0.381068
451,1,9421.18,1097.74,-1786.08,-9.29873,18.5061,-2.21039,9302.67,1453.28,-1733.4,1.28051,6.34145,-0.0457431
452,0,9404.42,1102.53,-1813.61,-8.23167,17.4085,-2.88112,9239.22,1438.91,-1857.91,2.68299,5.1219,-0.899429
452,1,9418.79,1163.58,-1862.69,-7.85061,16.997,-3.14025,9285.91,1466.45,-1867.48,3.15549,4.43596,-1.06707
453,0,9430.76,1240.2,-1877.05,-7.43901,16.4939,-3.21647,9326.61,1576.59,-1901,4.03968,3.8262,-1.21952
453,1,9483.44,1331.18,-1887.83,-7.08841,16.2957,-3.36891,9314.64,1637.64,-1908.18,4.19207,3.65854,-1.50916
454,0,9525.33,1398.22,-1920.15,-7.46954,16.0976,-3.91771,9387.67,1816.01,-1948.88,3.59754,3.42987,-2.36284
454,1,9580.4,1470.04,-1972.82,-8.53664,16.2653,-3.26216,9421.18,1904.59,-1948.88,3.0945,3.44513,-2.43902
455,0,9628.28,1503.56,-1983.6,-9.75615,17.3476,-1.57005,9545.69,1886.63,-1994.37,1.61579,4.61896,0.0458521
455,1,9678.56,1422.15,-1939.3,-10.2439,18.8263,0.457395,9528.92,1873.46,-1935.71,0.975601,5.32014,1.12806
456,0,9706.09,1335.96,-1845.93,-10.4878,19.6189,1.38722,9578.01,1725.02,-1820.79,0.503029,6.61592,2.72873
456,1,9718.07,1252.16,-1772.9,-10.2286,19.3902,0.884115,9589.97,1643.62,-1758.54,0.411588,7.1494,3.27744
457,0,9752.78,1234.21,-1775.3,-9.29874,18.811,0.0761902,9597.16,1517.92,-1765.72,1.61591,6.32618,2.14933
457,1,9752.78,1246.18,-1820.79,-7.74384,18.4756,-0.533557,9629.48,1562.22,-1750.16,2.24087,5.89939,1.63109
458,0,9759.96,1314.42,-1873.46,-6.72253,18.3689,-0.807934,9621.1,1690.31,-1854.31,4.32937,5.67072,0.762155
458,1,9756.37,1440.12,-1947.69,-6.20426,18.2622,-1.12806,9643.85,1788.47,-1866.28,5.04574,5.70123,0.167667
459,0,9753.98,1510.74,-1978.81,-6.4177,18.3689,-1.26525,9621.1,1928.54,-1972.83,4.32923,5.59451,0.289646
459,1,9700.11,1565.81,-2032.68,-7.11894,18.6433,-1.05182,9578,1989.58,-2011.13,3.94817,5.68598,0.411588
460,0,9639.05,1612.5,-2067.39,-8.59763,19.2683,-0.243866,9527.72,2039.86,-2032.68,2.34748,6.41772,1.52445
460,1,9610.33,1608.9,-2055.42,-9.80187,19.9086,0.182936,9503.78,2003.94,-2025.49,1.50913,6.78355,1.93598
461,0,9587.58,1539.47,-1999.16,-10.6555,20.3811,0.152435,9449.91,1886.63,-2006.34,0.533493,7.51528,1.95122
461,1,9570.82,1399.4,-1921.34,-11.2195,20.3963,-0.152453,9411.61,1867.48,-1954.86,0.152435,7.78964,1.81402
462,0,9570.82,1291.67,-1829.17,-11.2043,20.2287,-0.518307,9447.52,1674.73,-1849.52,-0.0609848,7.30181,1.35669
462,1,9543.29,1193.51,-1776.5,-10.5183,20,-0.929895,9418.79,1558.62,-1808.82,-0.0762173,6.95121,0.853641
463,0,9533.71,1121.68,-1748.96,-9.98474,19.8933,-0.945118,9404.42,1505.95,-1736.99,1.21958,6.93598,0.548772
463,1,9508.57,1127.67,-1746.57,-9.05484,19.4207,-0.960369,9397.24,1486.8,-1739.39,1.92075,6.67682,0.807943
464,0,9485.83,1181.54,-1762.13,-7.54567,18.4908,-1.47868,9391.26,1502.36,-1765.72,3.42995,5.80789,0.41156
464,1,9534.91,1247.38,-1810.02,-6.31094,17.317,-2.69822,9354.15,1576.59,-1757.34,4.13111,5.22864,-0.213438
465,0,9538.5,1361.11,-1903.39,-5.30484,16.0975,-3.78053,9406.82,1811.22,-1885.44,5.57934,3.7042,-2.05801
465,1,9558.85,1493.99,-2005.15,-5.42685,15.4726,-4.11586,9381.68,1899.8,-1936.91,6.26526,3.00304,-2.85062
466,0,9613.92,1534.68,-2062.61,-5.86892,15.5945,-3.23166,9481.04,1959.66,-2021.91,5.33532,3.24697,-1.46334
466,1,9651.03,1551.44,-2094.93,-6.29575,16.311,-1.96642,9494.21,1963.24,-2085.35,4.95427,3.44513,-0.884142
467,0,9665.39,1613.69,-2094.93,-6.85978,16.9817,-0.640193,9554.07,2019.51,-2111.69,4.29875,4.02442,0.792767
467,1,9674.97,1640.03,-2096.12,-7.92688,17.5915,0.152462,9540.89,2054.23,-2084.15,3.67376,4.57319,1.6616
468,0,9641.45,1642.42,-2111.69,-8.36891,17.9726,0.21341,9482.23,2084.15,-2120.07,2.80484,5.1982,1.85976
468,1,9528.92,1584.96,-2184.71,-8.96345,18.4147,0.548799,9445.12,2017.11,-2139.22,2.14937,5.50306,1.93598
469,0,9362.52,1565.81,-2243.37,-9.51222,18.6281,1.40248,9208.09,1927.33,-2208.65,1.18898,5.64025,3.27751
469,1,9242.81,1565.81,-2223.01,-10.0458,18.2012,2.14942,9120.71,1912.97,-2206.26,0.914635,5.4878,3.94818
470,0,9117.12,1504.75,-2172.74,-10.5031,17.317,2.59148,8937.55,1857.9,-2190.69,0.685964,4.55788,4.5732
470,1,9018.95,1419.76,-2152.39,-10.7012,15.6554,2.22559,8877.7,1817.2,-2181.12,0.42682,3.76522,4.34449
471,0,8957.9,1315.61,-2160.77,-10.5488,13.3993,1.9817,8723.27,1590.94,-2124.85,0.731726,0.807786,3.47557
471,1,8987.83,1212.66,-2096.12,-9.57313,10.7926,2.17989,8646.66,1578.98,-2103.31,1.26527,-0.762228,3.50611
472,0,9206.91,1201.89,-2019.51,-8.17068,7.92672,1.29568,8997.43,1577.78,-1972.82,3.18607,-4.35993,2.86582
472,1,9465.49,1274.92,-2048.24,-8.39943,5.32003,1.57015,9109.94,1620.88,-1962.05,4.00916,-5.99088,2.16461
473,0,9920.39,1412.59,-2009.93,-9.96959,5.15247,4.37514,9685.77,1881.86,-2044.65,2.02733,-7.94217,5.53372
473,1,10560.9,1436.52,-1780.08,-11.0671,6.4025,6.89033,10165.8,1974.02,-1924.93,0.792654,-7.80484,7.25613
474,0,11409.6,1241.38,-1450.87,-11.3262,9.00927,11.8295,11076.8,1640.01,-1496.36,0.381086,-4.03945,14.2534
474,1,12020.1,1134.85,-1235.4,-8.91756,10.5793,17.1344,11546,1491.59,-1279.7,0.945156,-2.68292,17.6678
475,0,12852.1,1224.64,-843.938,-5.82305,12.2257,19.4208,12976.6,1666.37,-779.288,5.36608,-0.563916,21.0215
475,1,13722.4,1406.6,-354.322,-3.50602,16.9819,17.0578,13582.3,1861.5,-557.846,6.9055,0.853697,21.9207
476,0,14670.5,1563.42,172.404,-0.884037,23.3997,6.27997,14792.6,1995.57,153.265,9.87821,10.6103,6.52359
476,1,15149.3,1656.79,439.343,2.42392,29.4515,-5.79314,15294.2,2057.82,433.353,11.5854,14.558,-1.29587
477,0,15155.3,1675.94,426.165,4.34457,37.6376,-13.1557,15307.3,2190.7,378.28,14.0245,23.6438,-11.1133
477,1,14596.2,1675.94,180.75,5.56407,47.287,-18.1557,15187.6,2227.8,304.061,14.7104,28.6891,-14.4055
478,0,13092.6,1607.7,-365.141,4.93898,53.735,-24.0856,13193.1,2154.78,-337.615,14.6037,39.8176,-21.4181
478,1,10894.7,1394.61,-1251.01,3.12492,55.8842,-27.3172,12091.9,2091.33,-768.551,14.0244,43.9787,-25.0001
479,0,8804.6,1266.53,-2082.99,1.02126,56.936,-29.6952,9133.73,1668.74,-1977.67,10.8687,45.6708,-28.3081
479,1,7656.62,1244.98,-2509.14,0.487805,59.1617,-32.6831,7896.06,1482.01,-2478.01,9.96952,46.7988,-29.6799
480,0,6101.55,1212.66,-3110.1,-0.975688,55.701,-35.5794,5374.85,1508.35,-3201.08,8.71945,43.262,-33.1557
480,1,4513.01,1097.74,-3845.12,-4.02453,45.1367,-35.4573,4226.94,1454.47,-3597.3,7.60667,40.0456,-33.7195
481,0,3216.56,940.915,-4606.48,-5.56406,31.2342,-34.2225,2558.12,1097.72,-4594.52,5.91456,20.685,-31.4786
481,1,2027.84,878.671,-5250.51,-4.78653,17.1031,-31.1127,1853.1,928.947,-5033.82,5.74697,11.6614,-30.2439
482,0,975.597,918.179,-5656.32,-5.04577,4.26779,-22.4539,429.686,1164.79,-5628.8,7.22569,-6.2814,-19.6793
482,1,575.798,1109.72,-5816.72,-8.35383,-6.43334,-8.49025,-45.491,1361.11,-5859.81,6.90545,-14.0093,-13.6584
483,0,936.155,1258.16,-5777.21,-12.5459,-15.3205,6.78415,407.039,1584.97,-5828.68,1.70705,-25.3055,4.89424
483,1,2092.59,1334.77,-5579.68,-14.7409,-20.0459,16.4637,754.184,1593.34,-5770.02,-0.533568,-30.7623,13.7654
484,0,3994.81,1393.43,-5079.27,-17.18,-25.5795,27.9273,3239.48,1640.03,-5141.52,-4.16177,-39.5889,32.318
484,1,6551.84,1497.58,-4159.88,-18.0031,-32.0734,38.6894,4452.04,1708.27,-4861.42,-5.35061,-43.5519,39.8172
485,0,8099.63,1516.73,-3726.57,-9.2221,-43.964,45.6557,7913.01,1555.03,-3942.01,6.34209,-59.5588,47.7748
485,1,9613.98,1294.05,-3657.14,-1.93575,-41.4784,56.7841,9473.88,1714.26,-3888.2,12.5763,-65.3049,52.5764
486,0,12414.1,1231.82,-2252.87,1.6617,-21.996,57.8963,13241.3,1689.1,-2127.15,14.497,-37.4985,59.5278
486,1,15333.8,1346.74,-453.631,3.88728,-6.14277,50.2893,14938.6,1595.73,-1003.14,15.1982,-23.5973,54.6795
487,0,17869.2,1326.38,891.888,3.70423,9.086,42.0424,18230.8,1938.13,772.215,14.7103,-6.06623,43.2312
487,1,19843.2,1195.9,1996.81,-0.228853,24.4366,29.0848,19826.4,2055.42,1511.95,13.1859,2.65262,38.4908
488,0,20387.8,1029.5,2875.47,-3.70439,38.1103,15.3653,20585.4,1709.44,2776.14,6.52406,21.6168,19.496
488,1,19505.5,882.258,2888.59,-2.43892,52.4701,6.98144,20611.7,1508.34,3207.03,4.86283,30.1678,11.2499
489,0,17933.7,481.215,2318.76,-1.21948,62.2412,4.75607,18725,1238.99,2284.02,7.14951,52.1658,7.85047
489,1,16092.6,-7.20191,1991.97,-0.762181,76.9824,3.38409,17848.8,968.445,1958.46,7.68292,62.5459,6.76829
490,0,15020,-168.793,1756.14,3.90268,93.9336,0.198023,15343.1,215.442,1540.65,13.0643,82.5925,4.19194
490,1,13333.2,-199.917,1116.86,6.57019,103.476,-6.63141,14149.7,100.563,1309.62,15.8385,91.0063,1.34136
491,0,11307.7,-126.888,374.663,6.85975,100.213,-2.65213,10802.5,34.7104,211.83,14.6493,86.6766,2.5001
491,1,9027.24,-405.833,-824.856,10.3965,96.9359,2.48492,9309.83,-111.336,-549.491,15.1068,84.1768,5.03059
492,0,6961.06,-356.728,-1673.57,18.2168,95.2591,3.62806,6896.38,-414.211,-1697.54,24.9853,83.0793,6.81409
492,1,5395.28,-503.99,-2389.44,28.7505,87.835,0.365679,5521,-545.88,-1974.02,31.8752,82.439,5.9603
493,0,4100.02,-684.748,-2887.42,28.9176,72.4536,-1.78359,3605.58,-517.145,-2747.39,36.3569,65.2583,1.66138
493,1,3281.23,-597.347,-3179.51,27.7744,53.795,-2.77443,2867.05,-509.965,-3033.45,36.6158,56.0059,0.0457148
494,0,3266.9,-361.514,-3230.97,28.5976,42.21,-3.58235,2667.13,-347.151,-3123.24,39.177,30.6237,-1.89034
494,1,3857.09,37.1277,-3166.33,31.2349,26.356,-6.0672,2752.14,-231.037,-3129.22,40.9909,19.2681,-3.50615
495,0,4392.18,345.973,-3110.07,32.8354,8.61211,-5.32004,3773.31,511.2,-3028.66,44.5734,-4.87927,-2.05783
495,1,5430.1,724.262,-2972.4,34.0245,-8.32383,-1.47848,4544.22,945.72,-2929.3,45.7622,-15.5794,-0.457265
496,0,6767.27,1007.97,-2894.59,34.5122,-22.9731,-0.457322,6423.73,1268.94,-2867.05,47.3019,-32.7753,0.381124
496,1,8091.26,1211.47,-2976,33.8414,-32.5461,-2.68304,7323.88,1455.68,-2886.21,47.622,-40.2745,0.137174
497,0,9215.32,1543.08,-2931.7,31.4023,-36.4483,-9.77168,8990.31,2042.28,-2857.48,45.0456,-46.0064,-8.00347
497,1,10299.9,2248.19,-2938.88,25.6857,-38.2623,-16.0521,9779.13,2553.43,-2837.13,43.5213,-48.369,-12.1342
498,0,11301.9,2817.99,-2856.28,13.0025,-34.6339,-21.3722,11506.6,3491.99,-2856.28,27.24,-46.1737,-18.5674
498,1,12018.9,3306.41,-2692.27,5.89922,-25.2435,-27.8966,12185.3,3775.66,-2777.27,20.1066,-43.1706,-22.058
499,0,11954.2,3647.58,-2795.24,4.11582,-19.2224,-30.7318,12053.6,4241.35,-2802.42,17.134,-31.3714,-28.232
499,1,11082.7,3598.48,-3002.34,1.06693,-13.4449,-27.9877,11747.1,4384.98,-2892.2,15.8841,-26.4481,-29.7561
500,0,9355.27,3037.02,-3582.95,-1.2958,-10.3353,-18.0331,9599.45,3770.84,-3483.59,11.387,-22.8352,-14.6791
500,1,8200.11,2604.88,-3924.1,-4.87821,-4.32899,-1.29504,8544.89,3438.07,-3898.97,9.52742,-20.8536,-5.94494
501,0,6953.91,1994.34,-3957.61,-10.0307,2.89661,11.7535,6544.46,2339.08,-3920.5,1.38679,-10.3958,14.0101
501,1,6124.34,1550.23,-3979.16,-13.4147,1.95108,19.1008,5760.44,1847.12,-3877.41,-1.73783,-7.74394,21.4787
502,0,5641.92,1241.38,-4078.53,-15.6403,-5.00031,19.9695,5255.25,1559.81,-4106.07,-3.35373,-16.7687,22.2104
502,1,5219.34,884.643,-4011.48,-17.3019,-12.5917,23.5063,4946.41,1375.46,-4134.78,-5.07628,-23.3996,21.6768
503,0,5537.81,678.751,-3921.7,-21.4789,-15.183,31.2503,5518.67,1168.36,-4031.83,-8.87213,-29.0246,31.0218
503,1,7083.32,749.391,-3331.5,-23.5671,-15.1524,36.2044,5935.24,1074.99,-3837.9,-11.4178,-29.8018,36.0824
504,0,9020.23,770.932,-2627.61,-21.692,-18.674,36.9055,8586.93,1027.11,-2730.53,-9.78648,-32.5459,37.4848
504,1,11158.3,582.979,-1677.1,-19.9695,-20.5641,36.9208,9961.1,1047.46,-2243.36,-8.76523,-34.8172,37.9269
505,0,13683,284.898,-408.161,-15.4266,-15.4418,32.6522,13343,569.796,-764.876,-3.30766,-28.4753,32.2711
505,1,15271.5,169.987,395.067,-6.29535,-5.24349,21.1123,14897.9,227.44,-10.7601,2.6374,-21.0516,25.015
506,0,16910.3,183.158,1365.93,1.17402,3.36919,7.95683,17318.6,555.474,1492.86,12.2108,-9.405,7.49922
506,1,18042.7,338.787,2072.2,4.26837,11.3418,-3.17112,18197.1,767.346,2027.89,15.3049,-4.67981,0.289536
507,0,18200.7,581.801,2073.37,6.49399,20.9455,-10.3661,18371.9,1100.15,1902.19,17.0733,8.23233,-9.60412
507,1,17451.3,793.685,1350.3,9.81721,35.5037,-13.2623,18294.1,1259.35,1709.45,18.4452,14.8934,-13.2775
508,0,15851.9,763.746,543.455,11.3263,54.4215,-11.4328,16425.3,1361.11,573.357,20.3659,41.0226,-10.0456
508,1,14232.3,697.908,-178.394,8.27728,72.0128,-11.8598,15097.8,1359.91,-69.4457,20.3658,53.2472,-8.07923
509,0,12245.1,954.103,-713.49,5.2743,79.7411,-17.7899,12427,1458.07,-593.783,14.6034,66.7689,-12.3783
509,1,9895.15,993.591,-1971.68,2.98773,78.1706,-21.2806,11174.9,1461.66,-927.763,12.7439,70.1219,-16.555
510,0,7281.87,969.651,-3270.52,-4.92415,71.3107,-25.0307,7281.78,1185.12,-2869.54,2.81963,58.5818,-23.3387
510,1,5804.7,963.666,-4047.42,-8.56714,62.1948,-27.9269,5728.11,1139.64,-3772.08,0.106737,53.3079,-25.122
511,0,3617.54,955.286,-4796.81,-13.2624,49.6184,-29.5885,2688.54,1215.06,-4844.72,-4.26852,35.1516,-27.4392
511,1,1771.65,1118.1,-5357.04,-13.003,32.728,-28.2926,1156.37,1124.07,-5153.52,-5.97562,25.9755,-27.4085
512,0,715.834,1069.01,-5819.12,-12.8964,14.1914,-25.2285,-80.2575,1259.36,-5772.45,-2.012,3.7947,-24.3444
512,1,494.402,1034.3,-5832.27,-17.3478,-5.58001,-18.765,-556.658,1291.67,-5959.17,-1.31101,-6.75322,-22.4085
513,0,1491.64,1116.9,-5565.31,-22.5307,-23.4153,-9.29842,949.376,1434.13,-5574.88,-7.56127,-33.0805,-8.44446
513,1,3332.8,1205.48,-5139.14,-27.7136,-38.2475,-2.65224,1838.76,1549.05,-5301.95,-10.3964,-43.8873,-2.48469
514,0,5519.91,1290.48,-4592.06,-31.7684,-50.0919,5.99121,5138.11,1707.07,-4602.82,-16.3417,-61.8454,7.77487
514,1,8185.88,1355.12,-3877.38,-33.2318,-53.7348,11.4788,6760.06,1759.74,-4307.17,-18.2317,-68.6129,12.9117
515,0,11663.5,1441.31,-2415.69,-27.4692,-47.8503,13.4147,11333.2,1176.72,-2553.33,-11.8747,-60.0911,15.6861
515,1,13465,1436.52,-1604.1,-9.61814,-35.8227,6.67649,13512.9,988.806,-1693.88,-4.81684,-55.9451,12.8809
516,0,15797,1376.66,-515.904,-3.50606,-17.0419,1.99684,16790.7,1853.15,-65.7671,5.29004,-29.1603,3.65815
516,1,17881.2,1499.97,1110.97,-3.59758,-1.32572,-0.929981,18029.5,2054.22,919.396,7.10361,-17.6676,0.243868
517,0,19229.1,1833.97,1855.52,-2.85057,12.7597,-3.29276,19512.8,2578.58,1698.72,7.91164,0.336182,-3.29284
517,1,19148.8,1566.99,1983.6,-6.31116,27.7597,-6.7227,19827.6,2726.99,1887.83,7.05787,9.10076,-5.48786
518,0,17731.4,1112.09,1449.66,-10.0763,42.5158,-8.41467,18102.5,1896.17,1271.29,0.838139,25.8087,-7.45435
518,1,15680.7,864.3,819.993,-9.35969,62.4398,-7.05785,17120.9,1504.75,963.661,-1.2805,38.2626,-6.20419
519,0,13797.7,725.439,264.54,-8.01826,78.4762,-9.40563,14189.1,1221.03,253.753,0.808029,62.623,-5.24389
519,1,11672.9,766.148,-463.306,-7.88111,82.8812,-12.744,12885.6,1164.78,-71.8308,1.29572,71.0824,-6.63117
520,0,9242.73,833.184,-1555.08,-10.4422,78.9175,-17.2868,9022.37,1061.82,-1383.91,-3.07947,64.4204,-15.6864
520,1,7042.47,772.127,-2790.49,-12.9269,71.143,-22.1953,7632.71,1128.87,-2176.35,-4.19206,60.7012,-18.0335
521,0,5633.51,761.357,-3411.75,-13.75,58.8258,-26.799,4952.28,897.813,-3368.69,-4.63417,46.5238,-24.7259
521,1,3629.53,967.267,-4344.32,-9.26808,43.3988,-24.4968,3590.08,863.112,-4001.92,-2.57612,35.64,-27.0122
522,0,2011.08,994.789,-5274.46,-4.54254,27.4995,-16.9509,1359.81,1006.77,-5207.44,5.35095,15.8376,-16.9965
522,1,1119.26,891.836,-5693.42,-1.28039,12.4233,-9.92356,594.956,944.508,-5578.49,7.92684,6.92059,-12.1951
523,0,988.808,901.419,-5778.41,-1.69213,-1.4334,-1.79848,494.399,1157.61,-5700.6,9.58849,-12.1045,-1.46293
523,1,2018.36,1140.85,-5410.88,-6.00629,-13.7809,7.36314,699.118,1308.43,-5676.65,9.48168,-20.3965,3.78058
524,0,4137.26,1431.74,-4848.24,-11.8447,-27.8359,13.9026,3264.61,1794.48,-4961.95,2.04235,-39.5436,14.6346
524,1,6472.81,1507.15,-4278.42,-14.1769,-39.2077,22.0735,4564.57,1966.84,-4583.69,-1.00613,-48.3233,19.2379
525,0,9186.65,1231.8,-3584.09,-14.2683,-41.311,27.6679,8733.04,1523.89,-3791.18,-0.533505,-52.8203,29.6041
525,1,12196.2,1039.08,-2268.45,-11.1889,-31.966,29.375,10759.6,1313.22,-3306.38,-0.0762089,-51.7377,33.7043
526,0,14021.7,1073.8,-1302.42,-5.60955,-18.1093,22.3015,14566.5,1565.82,-1112.01,7.27168,-30.807,22.1184
526,1,15976.6,1290.48,-125.65,-2.48468,-8.24667,11.1429,16125,1768.12,-205.892,9.96953,-22.439,15.4267
527,0,17372.4,1527.51,890.675,-2.45429,0.610069,1.82897,17601,2150.01,881.113,9.19204,-10.9141,2.57567
527,1,17914.6,1667.57,1404.21,-2.48475,10.6863,-7.21069,18361.1,2311.6,1440.12,8.4451,-5.28955,-3.00312
528,0,17313.6,1501.16,1337.15,-2.30182,22.348,-12.9422,17508.8,2082.94,1286.87,8.15549,8.39999,-10.9455
528,1,15925,1188.71,787.67,-2.30183,35.0614,-14.6342,16946.2,1915.36,1096.54,7.97256,14.9391,-13.4604
529,0,14306.5,948.097,277.712,-1.2652,49.2231,-12.9877,14681.1,1452.06,268.115,8.61284,33.7813,-10.9145
529,1,13026.8,841.559,-106.554,0.45738,60.7778,-14.1617,13702,1246.18,-2.39453,8.93294,42.5154,-9.60364
530,0,11706.4,812.831,-562.654,1.37197,64.7867,-16.8141,11704,1024.71,-457.313,10.9757,51.5095,-14.985
530,1,10457.8,694.313,-1173.18,3.35374,66.0214,-21.2959,10911.6,1097.75,-877.487,12.561,54.6647,-17.2409
531,0,9552.84,587.773,-1490.4,4.42075,64.6341,-24.7105,9143.38,914.575,-1599.35,13.9635,52.7591,-21.4941
531,1,8238.4,665.592,-2041.08,6.49399,60.381,-24.9695,8309.06,820.013,-1953.67,14.4665,51.4329,-23.0031
532,0,7073.63,853.54,-2929.34,9.87817,54.573,-22.4847,6662.99,1191.13,-3183.14,19.863,43.0789,-20.1676
532,1,6026.17,714.661,-3661.95,8.68894,47.4693,-20.9756,5978.31,1151.6,-3605.67,21.0061,39.2225,-18.7957
533,0,5190.6,794.881,-4009.1,5.51819,39.4357,-20.3658,4827.86,1225.84,-3967.21,16.4937,28.0483,-18.0183
533,1,4999.09,1234.23,-4181.48,2.91151,32.3931,-19.1463,4437.65,1380.26,-4159.93,14.9238,23.3079,-17.1646
534,0,5315.14,1601.73,-4078.52,-0.244013,25.015,-20.061,4899.75,1873.48,-4037.81,11.631,15.1978,-17.3171
534,1,5894.54,1935.72,-3913.32,-3.42998,16.0668,-22.3629,5128.38,2090.14,-3945.64,9.95425,10.8383,-18.125
535,0,6594.85,2178.73,-3805.58,-5.44213,10.2438,-23.125,5992.72,2510.34,-3766.07,6.14314,-2.14992,-20.7776
535,1,7335.86,2260.13,-3653.55,-8.27755,1.90518,-22.7134,6445.2,2632.42,-3696.65,4.48169,-8.01837,-21.5854
536,0,8028.98,2122.45,-3524.26,-9.31404,-4.96971,-22.6982,7709.38,2485.18,-3584.12,3.50606,-17.4699,-21.6768
536,1,8366.54,2084.15,-3369.83,-10.0305,-8.84157,-24.8019,8186.98,2383.43,-3454.83,3.04877,-20.7927,-22.7592
537,0,8825.04,2170.35,-3195.06,-13.6282,-11.7836,-22.2407,8689.78,2721.03,-3244.14,-0.670887,-24.5276,-20.7316
537,1,9303.88,2126.05,-3183.09,-20.1527,-13.2317,-15.8077,8927.98,2886.21,-3195.06,-4.5428,-26.2805,-17.195
538,0,9716.88,2155.98,-2938.87,-24.6952,-10.9145,-10.32,9658.24,2718.61,-2893.38,-11.4637,-23.9938,-9.55765
538,1,10114.3,2181.12,-2728.19,-25.9299,-6.90536,-6.84442,9971.85,2646.79,-2752.13,-13.4756,-22.2103,-6.99694
539,0,10364.5,2133.23,-2668.34,-27.5915,-3.33831,-2.89621,10249.6,2636.02,-2681.5,-15.305,-17.134,-2.22542
539,1,10457.9,2069.79,-2558.2,-29.5275,0.106814,1.32635,10380.1,2637.21,-2630.03,-16.4177,-15.2287,0.24394
540,0,10414.8,1964.44,-2462.43,-31.4178,3.99403,5.48793,10384.8,2401.37,-2414.54,-19.4209,-10.1827,6.08254
540,1,10348.9,1848.32,-2291.24,-32.8049,6.18907,7.98787,10305.8,2379.84,-2389.42,-20.5945,-8.03352,8.75004
541,0,10218.4,1747.76,-2054.22,-35.0763,9.51232,9.66469,10205.3,2161.95,-2094.91,-24.1008,-4.20717,10.8537
541,1,10155,1655.59,-1977.61,-36.2805,13.1404,10.1067,10147.8,2100.91,-1952.47,-25.2896,-2.1646,11.5092
542,0,10146.6,1417.36,-1929.72,-37.9269,15.6708,9.25302,10137,1819.58,-1917.75,-27.18,1.35684,10.1067
542,1,10146.6,1158.79,-1818.39,-39.4665,16.7683,7.86581,10068.8,1652,-1878.25,-28.2165,2.25609,9.40548
543,0,10085.6,1003.17,-1793.26,-38.3536,17.9574,7.7744,9981.42,1383.84,-1817.2,-26.9359,3.88726,9.14634
543,1,10036.5,875.077,-1759.74,-36.3567,19.2988,7.95732,9941.92,1183.93,-1818.4,-26.0518,4.81709,9.2683
544,0,9976.64,702.693,-1722.63,-34.5274,19.6799,7.48474,9889.25,1033.09,-1720.23,-23.9024,5.48783,8.8262
544,1,9895.23,612.914,-1642.42,-32.256,19.9238,6.63107,9916.79,938.525,-1703.48,-22.8201,5.85367,8.79574
545,0,9827,569.819,-1571.79,-29.8628,19.6799,5.12191,9740.8,861.91,-1612.49,-19.6188,6.05184,6.78346
545,1,9757.57,556.652,-1538.27,-28.2164,19.2988,4.78659,9652.22,792.479,-1562.22,-18.0945,5.91463,6.05183
546,0,9746.8,533.906,-1561.02,-25.3048,18.4299,3.44507,9683.35,786.496,-1574.19,-13.5822,4.98473,3.70418
546,1,9727.64,526.724,-1559.82,-22.0274,18.3079,0.74687,9667.79,746.989,-1576.58,-11.6311,4.64939,2.24083
547,0,9734.83,616.51,-1610.1,-19.1158,19.2226,-1.55494,9686.94,905.015,-1614.89,-8.17062,6.05188,-0.503141
547,1,9764.75,750.586,-1735.8,-16.814,20.3354,-2.48477,9646.24,1005.57,-1663.97,-6.89024,6.79879,-1.29573
548,0,9780.31,853.535,-1800.44,-14.7256,20.7927,-2.71342,9629.48,1138.45,-1772.91,-4.17673,7.48478,-1.09755
548,1,9753.98,966.064,-1874.66,-12.5609,20.4878,-3.38417,9582.79,1188.72,-1819.59,-2.56095,8.0488,-0.990852
549,0,9665.39,1085.77,-1950.08,-11.2805,19.8171,-4.6037,9437.94,1386.25,-1946.49,-0.304806,7.39327,-2.80495
549,1,9552.86,1198.3,-2029.09,-10.6707,19.4055,-5.39636,9362.53,1461.66,-1958.46,0.32012,6.63108,-3.2317
550,0,9509.77,1319.21,-2124.86,-10.4573,18.9177,-6.32625,9287.11,1691.51,-2117.68,0.762212,6.41768,-4.40553
550,1,9504.98,1436.52,-2214.64,-10.4268,18.5061,-6.6311,9265.56,1806.43,-2213.44,0.960368,6.03657,-5.00001
551,0,9476.25,1476.03,-2243.37,-10.4726,18.2774,-6.64634,9301.47,1851.92,-2255.34,0.655476,5.7317,-4.96951
551,1,9481.04,1533.49,-2267.31,-10.8079,18.003,-6.87501,9331.4,1830.37,-2236.18,0.548781,5.53353,-4.89329
552,0,9475.05,1572.99,-2314,-11.2805,17.9268,-6.95122,9240.42,1927.34,-2291.25,0.0457136,5.30487,-5.15245
552,1,9467.87,1612.5,-2309.21,-11.7226,17.7439,-5.94509,9218.87,1999.16,-2316.39,-0.121951,5.06097,-4.87804
553,0,9434.35,1616.09,-2310.4,-12.1494,17.4543,-4.96949,9254.79,2014.72,-2292.45,-0.716485,4.77134,-3.5213
553,1,9358.93,1602.92,-2334.35,-12.3018,17.4238,-3.5213,9215.28,2041.06,-2334.35,-0.868901,4.55792,-2.33229
554,0,9405.62,1617.28,-2345.12,-12.8201,18.0793,-2.33229,9241.62,2009.93,-2351.11,-1.31099,5.3354,-0.609704
554,1,9388.86,1590.95,-2353.5,-13.7195,18.8415,-1.47864,9252.39,2065,-2351.11,-1.78355,5.97563,-0.167685
555,0,9397.24,1569.4,-2345.12,-14.7866,19.8019,0.0915118,9244.01,1987.18,-2358.29,-3.49091,6.78356,1.60067
555,1,9393.65,1501.16,-2323.57,-15.1067,20.5641,2.10371,9234.44,1950.08,-2375.05,-4.29879,7.2866,2.74392
556,0,9440.34,1468.84,-2245.76,-14.8933,20.686,3.07929,9278.73,1869.87,-2264.91,-4.07011,7.56099,4.9391
556,1,9424.77,1436.52,-2167.95,-14.4512,20.3049,3.55184,9290.7,1829.17,-2172.74,-3.36888,7.48476,5.42683
557,0,9399.64,1423.35,-2157.18,-13.8719,20,4.07014,9246.4,1770.51,-2151.19,-2.94207,6.93596,5.68599
557,1,9412.8,1411.38,-2123.66,-13.3537,19.5732,5.16772,9246.41,1802.84,-2110.49,-2.86585,6.4939,6.15855
558,0,9490.62,1339.55,-2065,-12.3628,19.5884,6.08234,9384.08,1636.43,-2039.86,-1.53959,6.53964,7.46956
558,1,9618.71,1280.9,-2006.34,-10.9756,19.5884,6.18902,9493.01,1564.61,-1974.02,-0.731695,6.4939,7.72866
559,0,9743.21,1276.11,-1981.2,-10.1982,19.436,5.19814,9622.3,1657.99,-1954.87,0.625043,6.41768,6.44813
559,1,9805.45,1318.01,-1999.16,-9.83231,19.3445,4.64938,9654.62,1690.31,-2011.13,1.08232,6.40244,6.12805
560,0,9827,1374.27,-2009.93,-9.52744,19.6037,4.57317,9653.42,1704.67,-1994.37,1.28049,6.67684,5.88414
560,1,9809.04,1395.82,-2036.27,-9.08536,20.0153,4.71037,9674.97,1691.5,-1985.99,1.61586,6.7683,5.83842
561,0,9812.64,1391.03,-2087.75,-8.96342,20.2592,4.52743,9728.84,1786.08,-2030.28,1.89025,7.22563,5.67073
561,1,9751.58,1424.55,-2112.88,-9.14635,20.3049,3.71949,9679.75,1848.32,-2087.75,1.95122,7.37805,5.24389
562,0,9744.4,1447.3,-2116.47,-9.61892,20.3506,2.92681,9658.21,1886.63,-2098.52,1.31095,7.51525,4.16156
562,1,9666.59,1432.93,-2098.52,-10.0305,20.2287,2.3323,9622.29,1845.93,-2075.77,0.777429,7.51525,3.75
563,0,9667.79,1441.31,-2092.53,-10.122,20.1829,2.33232,9631.87,1850.72,-2093.73,0.807932,7.17987,4.17685
563,1,9774.33,1435.32,-2063.8,-10.4421,20.4573,0.868853,9703.7,1818.39,-2041.05,0.716459,7.43904,4.00914
564,0,9727.64,1403,-2057.82,-11.1433,20.5945,0.503054,9563.63,1816,-2031.48,-0.243933,7.56098,2.71338
564,1,9751.58,1404.2,-2051.83,-12.0732,21.433,1.05185,9603.15,1855.51,-2078.17,-0.868913,7.74391,2.68294
565,0,9764.75,1353.92,-1988.38,-11.8597,22.0275,1.72258,9652.22,1687.91,-1988.38,-0.701211,8.94821,3.35368
565,1,9691.73,1242.59,-1946.49,-10.8384,21.7226,1.84451,9683.35,1624.47,-1964.44,-0.426823,9.42074,3.67379
566,0,9678.56,1175.55,-1921.35,-10.1372,21.311,1.6006,9544.48,1511.93,-1867.47,1.09761,8.39936,3.17072
566,1,9710.88,1116.89,-1944.09,-8.58228,20.2591,-0.122005,9509.77,1435.32,-1877.06,1.72257,7.77439,2.66767
567,0,9691.73,1140.84,-2025.5,-6.60056,18.8872,-2.63726,9561.25,1472.44,-1963.25,4.74095,6.03653,-1.09768
567,1,9685.74,1186.33,-2060.21,-4.99997,17.6219,-3.93295,9515.75,1482.01,-2044.65,5.86891,5.48781,-2.45427
568,0,9676.17,1297.66,-2103.31,-4.17682,17.6372,-4.55794,9542.09,1756.16,-2103.31,7.05797,5.44207,-3.00307
568,1,9661.8,1442.51,-2138.02,-4.39026,18.3842,-5.24392,9575.61,1859.1,-2155.98,7.43903,5.5183,-3.62806
569,0,9640.25,1461.66,-2188.3,-5.38113,19.0549,-4.78657,9531.32,1880.65,-2226.61,5.70117,6.28051,-3.00303
569,1,9594.76,1470.04,-2191.89,-6.21953,19.7561,-3.74998,9539.7,1901,-2231.4,4.93902,6.93599,-2.37804
