Frame,Sub Frame,ACCX1,ACCY1,ACCZ1,GYROX1,GYROY1,GYROZ1,ACCX2,ACCY2,ACCZ2,GYROX2,GYROY2,GYROZ2
1,0,8310.23,-3575.61,-4884.14,7.20888,16.7097,-8.6424,-976.803,9722.62,1590.99,6.99804,9.31076,12.1963
1,1,8378.38,-3610.43,-4914.04,7.94099,15.2007,-9.19118,-938.62,9791.02,1595.71,6.82927,9.95398,11.8753
2,0,8495.62,-3661.83,-4961.9,8.38356,14.2695,-9.83123,-963.581,9848.45,1635.16,6.14478,11.1865,11.0535
2,1,8639.24,-3702.58,-5003.82,8.74941,14.3592,-10.2738,-1009.09,9921.45,1614.96,5.869,11.4028,10.5189
3,0,8741.09,-3728.93,-5027.79,9.20653,15.3639,-10.7766,-1088.02,9962.23,1618.45,4.94101,11.9803,9.28602
3,1,8798.61,-3724.2,-5072.03,9.69433,16.629,-11.1428,-1139.58,9969.46,1626.85,4.72541,12.2408,8.49175
4,0,8814.25,-3691.92,-5056.62,10.0909,17.6357,-11.5846,-1217.3,9980.21,1663.89,4.16288,12.2105,6.61962
4,1,8754.53,-3657.2,-5043.39,10.0917,18.8698,-11.9355,-1283.2,10030.4,1686.69,4.10031,12.2408,5.67153
5,0,8719.71,-3652.35,-5013.52,9.96972,19.7549,-12.4685,-1484,9981.57,1718.97,4.23761,11.3891,4.4536
5,1,8671.89,-3649.97,-4942.96,10.0303,20.8061,-12.9414,-1586.07,9920.46,1739.36,4.22266,11.1888,3.76594
6,0,8560.68,-3612.93,-4847.22,10.426,21.5539,-13.4138,-1821.51,9756.7,1725.06,4.66365,10.0331,2.88278
6,1,8460.06,-3543.54,-4778.92,10.6857,21.7986,-13.7191,-1910.54,9681.01,1733.37,4.99961,9.40599,2.66759
7,0,8379.83,-3456.18,-4725.04,10.6861,21.7836,-14.1912,-2040.78,9661.82,1731.02,6.42996,8.23409,3.73248
7,1,8281.71,-3433.29,-4722.54,10.3513,21.677,-14.74,-2079.37,9643.88,1699.95,7.25531,7.72896,4.22227
8,0,8197.87,-3390.28,-4733.32,10.3352,20.825,-15.4256,-2010.08,9721.48,1611.47,8.38197,6.58775,6.32176
8,1,8189.34,-3354.32,-4707.06,10.3202,19.6818,-16.2486,-2001.52,9745.61,1531.21,8.81078,6.12825,7.78795
9,0,8221.63,-3282.59,-4679.51,10.3049,19.2534,-16.7828,-1809.25,9841.16,1459.38,9.024,5.50434,10.2392
9,1,8224.1,-3185.65,-4619.73,10.0767,19.5724,-17.0271,-1728.64,9848.6,1401.89,8.99411,5.57868,11.295
10,0,8218.1,-3081.51,-4533.57,9.26988,20.4253,-17.0732,-1612.74,9840.17,1352.8,8.05077,5.35131,13.319
10,1,8206.15,-3033.5,-4496.34,7.79231,21.629,-16.7537,-1564.63,9840.17,1322.84,7.74391,5.42644,14.2828
11,0,8177.45,-2990.44,-4427.02,6.23724,23.2746,-16.3726,-1446.35,9621.57,1277.39,6.78562,5.30528,15.5311
11,1,8129.6,-2906.72,-4322.91,4.62158,24.6778,-16.0067,-1361.2,9497.91,1289.22,5.96146,5.28954,16.2341
12,0,8059.01,-2846.78,-4245.03,2.06258,26.369,-15.3214,-1248.79,9226.61,1319.16,4.9713,5.71557,17.5279
12,1,8039.73,-2931.49,-4224.58,-0.255679,27.3312,-14.9394,-1209.09,9133.89,1355.06,4.64949,5.57986,18.155
13,0,8104.23,-3078.69,-4316.54,-2.11603,28.2758,-14.6499,-945.08,9160.15,1336.03,3.99529,5.35091,18.5968
13,1,8158.17,-3253.42,-4408.79,-3.0173,29.1755,-14.4819,-828.456,9116.04,1344.31,3.68922,5.44178,18.4914
14,0,8215.6,-3460.47,-4418.52,-3.21637,29.8922,-14.36,-585.888,9148.13,1371.83,2.42646,5.44217,17.4107
14,1,8216.93,-3618.61,-4361.16,-2.86665,30.2892,-14.4205,-511.154,9175.75,1414.9,1.82967,5.3812,16.7994
15,0,8194.19,-3642.8,-4332.33,-2.37884,30.8678,-14.2687,-372.602,9021.69,1487.86,0.855639,5.82218,15.8859
15,1,8184.59,-3614.1,-4343.05,-3.03185,31.4473,-14.0248,-314.861,9011.68,1504.76,0.548781,6.06688,15.4272
16,0,8190.55,-3584.17,-4383.71,-4.15971,32.133,-13.8722,-347.082,8954.47,1700.65,-0.500772,6.18883,14.4076
16,1,8142.79,-3451.51,-4395.75,-5.86584,32.9559,-13.4308,-366.297,8926.79,1709.58,-0.625495,6.26515,13.8116
17,0,8022,-3344.84,-4334.83,-8.94253,33.764,-13.0645,-440.378,8696.24,1812.15,-0.457515,6.46302,12.0311
17,1,7858.05,-3269.4,-4214.01,-11.8706,33.644,-12.4859,-518.228,8568.96,1863.86,-0.289931,6.47876,11.6003
18,0,7757.34,-3025.56,-4216.11,-14.1125,32.3501,-11.4957,-722.645,8548.5,1888.98,0.851284,5.36823,10.6424
18,1,7874.23,-2820.65,-4432.42,-16.5051,31.7231,-10.8088,-778.131,8515.05,1889.04,1.35641,4.72621,10.3049
19,0,7991.69,-2644.68,-4565.6,-18.3662,33.8367,-10.7164,-797.223,8654.71,1915.3,2.58889,2.67194,9.75729
19,1,7936.95,-2478.26,-4555.04,-19.6932,34.9382,-10.6404,-743.532,8737.57,1878.35,3.30724,1.92093,9.20811
20,0,7982.11,-2544.8,-4486.86,-21.9166,33.6464,-10.701,-590.458,9010.01,1780.27,4.05349,0.110565,9.49607
20,1,8074.3,-2684.87,-4431.75,-22.6523,31.6649,-11.4618,-459.873,9180.39,1752.56,3.90323,-0.533438,9.63415
21,0,8308.62,-2798.65,-4373.11,-20.4013,30.9304,-12.4831,-395.121,9383.69,1641.47,3.55233,-1.00511,9.40599
21,1,8605.47,-2871.74,-4464.95,-17.0787,31.812,-13.6109,-329.319,9464.23,1625.62,3.24745,-1.1129,9.60307
22,0,8867.72,-2887.41,-4612.19,-13.4359,33.64,-14.3131,-232.408,9761.73,1528.92,2.44061,-1.96459,9.64949
22,1,9034.29,-2851.57,-4674.62,-10.6747,35.561,-14.5881,-184.4,9916.66,1465.31,2.10386,-2.16483,9.63415
23,0,9173.16,-2835.94,-4711.73,-9.42212,37.0405,-14.8623,-1.57757,10075.7,1384,1.16051,-2.59048,9.40599
23,1,9304.86,-2866.99,-4800.2,-7.97523,38.4276,-14.8021,78.9621,10090.4,1338.41,0.579862,-2.83517,8.96421
24,0,9441.31,-2885,-4912.72,-6.60269,39.6932,-14.2541,154.278,10158.4,1345.51,-0.333586,-2.45516,8.84147
24,1,9501.33,-2887.41,-4995.39,-6.14359,40.4563,-13.9028,220.173,10174.2,1364.66,-0.701022,-2.13454,8.70457
25,0,9466.77,-2912.49,-5006.29,-6.37136,41.203,-13.2939,220.298,10120.4,1373.07,-1.1424,-1.16051,8.97797
25,1,9398.56,-2877.92,-4856.96,-6.91975,41.1287,-12.7447,226.229,10092.8,1381.44,-1.55429,-0.579862,8.9941
26,0,9355.4,-2845.55,-4703.63,-7.48387,39.8958,-12.0287,82.9183,9999.58,1498.52,-1.82887,0.881181,8.96342
26,1,9257.38,-2753.52,-4550.44,-8.30645,37.9151,-11.3729,55.0201,9994.54,1515.58,-1.89024,1.43273,8.78089
27,0,9162.75,-2692.35,-4388.84,-9.72304,35.3702,-11.037,-13.0051,10020.9,1501.18,-1.75335,2.28481,8.81078
27,1,9115.98,-2660,-4154.36,-11.7191,32.6873,-10.93,-117.145,10023.3,1491.6,-1.93548,2.83477,8.70457
28,0,9143.38,-2713.7,-3924.45,-13.5338,30.7801,-10.8234,-236.824,10050.8,1539.36,-1.96656,3.24626,8.06531
28,1,9198.43,-2748.51,-3725.69,-14.4198,30.1833,-10.7471,-192.896,10074.8,1595.65,-1.95122,3.39929,7.82022
29,0,9270.22,-2724.66,-3609.41,-14.6188,30.8521,-10.6861,-253.599,10036.6,1648.32,-1.49489,3.82533,8.12431
29,1,9354.01,-2700.69,-3579.35,-14.7711,32.5578,-10.8076,-296.85,9982.71,1675.91,-1.56963,4.14595,8.23171
30,0,9347.03,-2699.45,-3544.69,-14.8627,34.0984,-10.8993,-473.679,9872.7,1763.15,-0.642418,4.48112,8.41424
30,1,9251.38,-2729.33,-3498.01,-14.9693,36.7329,-11.1884,-563.765,9815.08,1747.86,-0.0310808,4.61881,9.06884
31,0,9165.13,-2781.97,-3485.96,-14.9544,38.8234,-11.3718,-739.451,9677.64,1762.07,1.42996,4.36035,10.181
31,1,9024.01,-2929.02,-3503.88,-14.3458,39.7703,-11.6306,-837.877,9609.18,1768.13,1.93588,4.1314,10.3053
32,0,8936.46,-3116.94,-3549.32,-12.5948,40.3041,-12.1637,-877.421,9600.75,1709.58,3.63964,3.62904,11.476
32,1,8881.38,-3286.98,-3594.82,-10.1566,40.4725,-12.9103,-885.855,9604.33,1683.14,4.29858,3.65814,11.9815
33,0,8889.62,-3324.36,-3677.34,-8.00631,40.3053,-13.8855,-979.027,9659.29,1630.56,5.47009,3.76515,12.286
33,1,8886.1,-3344.65,-3726.52,-6.58735,40.974,-14.6939,-935.099,9731.12,1509.77,5.99056,3.87176,12.5606
34,0,8832.32,-3402.05,-3799.46,-5.00277,41.4933,-15.1975,-913.38,9838.78,1352.99,6.58418,4.17624,12.2113
34,1,8747.36,-3465.51,-3839.06,-2.88475,40.9922,-15.4874,-911.002,9883.23,1315.61,6.95083,4.77026,12.0732
35,0,8728.05,-3495.5,-3863.01,-1.63258,40.0169,-15.7313,-870.378,9995.56,1230.81,7.24036,6.49055,12.1188
35,1,8840.35,-3485.99,-3833.19,-0.444148,38.0221,-16.0665,-882.209,9995.87,1187.56,7.45398,7.46853,12.1798
36,0,8945.79,-3463.25,-3813.98,0.380011,35.9788,-16.5236,-1005.32,10084.2,1179.15,7.68254,10.0861,12.4689
36,1,9158.61,-3439.31,-3732.73,0.913844,34.9859,-16.7376,-1008.04,10182.4,1142.11,7.8808,11.3253,12.8348
37,0,9387.31,-3393.87,-3630.97,1.49292,35.5928,-16.6314,-970.903,10419.1,1133.65,7.78993,14.2927,13.4288
37,1,9550.24,-3373.45,-3505.33,2.05704,36.812,-16.631,-948.135,10459.1,1120.52,7.74391,15.7915,13.8714
38,0,9690.31,-3385.37,-3353.34,2.69709,38.4575,-16.8289,-903.896,10545.1,1101.36,7.8808,19.9457,14.6935
38,1,9793.33,-3393.77,-3295.66,2.77459,40.2714,-17.3466,-858.391,10584.8,1107.3,7.92683,21.8281,15.0303
39,0,9859.23,-3437.98,-3243.05,2.65264,42.5114,-18.002,-772.293,10676.7,1157.5,7.8812,26.8493,15.7911
39,1,9841.44,-3463.19,-3123.46,2.34815,44.8895,-18.6271,-725.49,10714,1140.91,8.09402,29.2514,16.0822
40,0,9784.01,-3473.97,-2952.35,2.02793,45.9442,-19.2825,-625.088,10702.1,1119.31,8.17074,34.3949,16.3257
40,1,9743.26,-3505.05,-2845.64,1.58616,46.5539,-20.0901,-600.929,10690.1,1069.11,8.07947,36.8124,16.585
41,0,9774.24,-3521.86,-2792.91,1.23525,47.7113,-20.8525,-94.475,10720,967.444,7.91188,45.1502,17.4677
41,1,9762.41,-3513.51,-2785.65,0.930372,49.6003,-21.7667,159.036,10781,995.864,7.95712,49.1436,17.4245
42,0,9703.81,-3488.4,-2686.51,0.671127,51.9017,-22.5598,684.861,10704.7,821.63,7.75964,61.5747,17.3627
42,1,9554.35,-3395.16,-2466.43,0.199059,53.5496,-23.3371,855.919,10641.1,778.069,7.72856,67.3438,17.1499
43,0,9456.02,-3290.99,-2321.36,-0.714786,54.2675,-23.8104,1061.39,10361.5,641.956,8.38277,80.4759,15.6129
43,1,9516.78,-3233.44,-2333.06,-0.382381,55.8049,-24.1306,1183.82,10178,547.176,9.05389,89.2585,14.5287
44,0,9589.87,-3125.84,-2478.91,0.410302,59.1098,-24.5268,1366.73,9806.19,291.415,10.8045,104.985,11.9107
44,1,9587.62,-3039.56,-2609.49,0.929187,62.8903,-24.9992,1472.33,9587.81,167.687,11.8434,112.266,10.6869
45,0,9506.34,-2996.4,-2695.75,1.53855,66.1231,-25.6239,1374.52,9223.18,-140.622,15.2978,130.359,6.25928
45,1,9362.78,-3091.89,-2603.93,1.79858,67.6204,-25.9296,1350.3,9044.24,-282.423,16.6762,138.486,4.17821
46,0,9258.52,-3033.66,-2548.67,2.87883,68.1853,-26.5689,1093.52,8806.34,-529.812,20.1451,153.369,0.495304
46,1,9233.25,-2987.99,-2546.23,3.32297,68.9772,-27.2246,980.48,8751.97,-669.048,22.4213,162.491,-1.94846
47,0,9138.87,-3047.68,-2547.43,4.22069,70.987,-27.4237,807.202,8571.64,-886.626,25.9536,177.334,-4.88787
47,1,8971.37,-3076.53,-2547.43,6.83948,72.4068,-27.5303,708.777,8498.24,-977.977,27.4229,183.974,-5.77734
48,0,8850.33,-3050.27,-2558.18,9.58418,72.5461,-27.7892,769.573,8573.47,-1212.18,31.8049,199.526,-6.75098
48,1,8803.53,-3047.8,-2626.3,11.4304,71.4961,-28.3678,802.042,8574.89,-1359.75,33.7793,206.475,-7.34697
49,0,8882.3,-3014.38,-2762.66,12.4681,70.5197,-28.7648,639.608,8713.38,-1584.53,37.7966,219.683,-8.35169
49,1,9004.39,-2980.83,-2912.31,12.6373,70.0767,-28.6133,559.1,8737.69,-1702.17,39.5873,225.819,-8.93234
50,0,9100.22,-3005.85,-2989.08,12.3938,70.4107,-27.9434,238.897,8679.09,-1905.38,42.9504,235.088,-10.074
50,1,9068.16,-3099.12,-2898.41,12.454,70.4119,-27.5158,44.4864,8669.39,-2046.87,44.4807,239.266,-10.655
51,0,9028.58,-3198.5,-2712.96,13.5039,68.7687,-26.9827,-634.259,8786.47,-2266.89,48.011,246.677,-10.6404
51,1,9017.77,-3236.93,-2587.1,15.4843,65.9957,-26.4642,-859.503,8832.19,-2314.03,49.4202,249.435,-10.6098
52,0,9034.48,-3213.08,-2472.21,17.6794,62.5972,-25.8395,-1324.19,9178.63,-2390.43,50.4249,252.129,-7.96304
52,1,9162.35,-3110.27,-2434.92,19.8745,59.0606,-25.1231,-1676.71,9387.46,-2436.06,51.0512,252.76,-6.57121
53,0,9271.4,-2896.18,-2371.59,21.9327,56.2542,-24.2089,-2298.43,9637.39,-2345.33,50.109,251.268,-3.07122
53,1,9251.29,-2612.55,-2222.1,23.1692,53.6019,-23.2333,-2542.52,9786.14,-2291.3,49.3454,250.154,-1.08419
54,0,9161.58,-2333.59,-2006.71,23.2321,50.2801,-22.349,-2522.38,10288.1,-2004.55,45.3742,246.288,6.28046
54,1,9104.02,-2200.41,-1748.2,22.4406,46.5154,-21.4497,-2462.54,10498.5,-1881.9,43.3553,244.513,9.5712
55,0,9157.68,-2096.3,-1533.8,22.4689,43.1759,-20.8545,-2353.7,10841.4,-1553.33,37.862,240.177,16.0842
55,1,9347.8,-1928.83,-1366.15,22.7892,41.6936,-20.4579,-2347.46,10990.5,-1395.93,35.2305,238.461,18.5814
56,0,9554.93,-1738.5,-1233.22,22.9571,40.7789,-19.9552,-2316.48,11043.2,-1063.71,30.2388,234.566,22.3245
56,1,9702.29,-1589.97,-1191.14,22.2577,41.8265,-19.087,-2324.72,11092.3,-864.508,27.8372,232.426,23.9473
57,0,9741.99,-1498.89,-1183.94,20.2781,44.1271,-18.1113,-2625.8,10735.2,-449.741,23.0889,225.883,25.9563
57,1,9758.74,-1411.53,-1207.82,17.6873,46.764,-16.9988,-2796.27,10507.2,-274.237,20.9921,222.685,26.8135
58,0,9699.05,-1324.13,-1223.42,15.0956,49.0362,-15.8859,-3400.91,10045.8,221.624,18.4198,212.825,28.5787
58,1,9587.77,-1255.86,-1247.33,12.489,50.6684,-15.1534,-3567.42,9830.75,443.993,17.4851,208.037,29.4658
59,0,9378.48,-1290.37,-1272.48,10.3234,51.6298,-13.9961,-3722.63,9541.47,822.832,16.7089,197.278,31.5354
59,1,9185.64,-1343.07,-1292.84,8.81315,51.1448,-12.7002,-3763.72,9459.48,964.817,16.144,192.062,32.6971
60,0,9105.23,-1419.62,-1365.75,8.15618,50.3671,-11.3741,-3389.79,9404.55,1273.07,15.6715,179.462,35.832
60,1,9146.93,-1480.73,-1535.56,8.87018,50.4111,-9.98703,-3215.52,9403.19,1385.02,15.3663,173.51,37.2856
61,0,9179.34,-1544.15,-1728.3,9.96774,50.5791,-9.26908,-2711.29,9366.21,1564.23,14.1641,162.416,41.0897
61,1,9212.83,-1521.6,-1970.01,12.3887,50.8836,-8.64438,-2432.76,9366.09,1612.52,13.6892,157.579,43.0016
62,0,9240.38,-1472.51,-2128.24,14.9351,51.2494,-8.06491,-2068.1,9438.99,1619.65,12.4264,149.924,46.4261
62,1,9350.33,-1406.71,-2371,17.6023,51.3871,-7.83557,-1876.03,9404.55,1634.02,11.5559,145.629,48.3671
63,0,9514.28,-1281.13,-2700.1,20.5744,52.087,-7.85051,-1500.72,9424.69,1630.47,9.80528,139.342,51.0771
63,1,9618.57,-1166.15,-2987.53,22.9843,52.8647,-8.04839,-1279.93,9416.44,1645.97,9.1314,136.481,51.9815
64,0,9520.8,-1075.14,-3108.75,24.6774,52.6837,-8.47483,-1055.06,9298.12,1648.42,7.57947,130.363,52.8336
64,1,9316.19,-1053.45,-3083.82,25.3804,49.8686,-9.23643,-948.197,9253.6,1693.8,7.07317,127.502,53.1554
65,0,9121.01,-1100.04,-2908.11,25.6704,45.039,-9.86192,-779.645,9100.69,1695.13,6.57121,121.856,51.9387
65,1,9045.36,-1219.62,-2710.55,26.8726,38.7911,-10.2738,-745.755,8985.58,1715.39,6.35681,118.008,50.7486
66,0,9078.72,-1279.65,-2562.01,27.6668,34.9438,-10.5028,-547.516,8795.46,1687.99,6.15893,111.75,47.8867
66,1,9146.93,-1370.5,-2420.77,28.9914,30.5567,-10.6857,-439.421,8731.67,1675.94,6.1432,109.011,46.6928
67,0,9204.42,-1430.47,-2355.96,30.7136,26.4544,-10.3666,-160.983,8671.92,1672.36,6.11291,101.875,42.9347
67,1,9232.01,-1462.81,-2202.97,32.2994,23.6169,-9.87884,-39.5739,8627.56,1660.4,6.2801,98.7975,41.1597
68,0,9287,-1473.62,-2015.02,33.4587,21.2537,-9.0716,186.284,8637.04,1606.62,6.02203,92.3761,36.2754
68,1,9346.87,-1528.58,-1788.86,34.1759,19.2105,-8.38513,380.415,8700.41,1528.83,6.05154,89.6661,33.965
69,0,9479.59,-1557.41,-1553.02,34.9681,18.035,-7.45594,636.394,8845.11,1415.17,5.50433,84.5685,29.6582
69,1,9555.18,-1604.02,-1293.3,36.1869,18.0787,-6.69316,733.769,8908.78,1394.6,5.25925,82.288,27.2431
70,0,9567.23,-1607.73,-1025.15,37.8478,18.3076,-5.83989,975.135,8890.92,1355.21,4.2856,76.9166,21.5512
70,1,9542.14,-1593.36,-832.256,40.1637,18.1255,-4.92526,1024.78,8889.66,1347.92,3.73525,74.4072,18.8891
71,0,9501.46,-1536,-736.333,41.6597,17.8663,-4.51259,1072.48,8856.23,1249.99,2.38081,70.085,13.8061
71,1,9454.78,-1431.92,-736.178,44.4154,17.2117,-3.99489,1145.51,8876.43,1237.76,1.81432,67.8981,11.4194
72,0,9367.48,-1299.08,-788.789,47.5712,16.4646,-3.56767,1163.58,8826.36,1098.06,0.444927,64.5646,7.87294
72,1,9320.67,-1206.8,-797.285,51.1373,15.1853,-3.20181,1188.67,8805.87,1045.08,-0.228167,62.5783,6.31196
73,0,9245.36,-1076.43,-834.294,54.4918,13.8131,-2.79032,1254.44,8687.62,965.033,-1.94768,59.0618,2.91857
73,1,9150.79,-956.661,-915.635,57.2671,12.4717,-2.40913,1273.72,8633.52,931.36,-3.13887,57.3946,1.4642
74,0,9126.7,-860.862,-1038.87,59.6609,11.6322,-2.27144,1212.79,8567.78,914.616,-4.76829,54.8678,0.565697
74,1,9155.37,-791.384,-1223.11,62.0693,11.8741,-2.1192,1263.98,8572.39,877.544,-5.60897,53.9485,0.213611
75,0,9143.5,-714.8,-1356.14,64.3258,13.1074,-1.93627,1259.41,8602.32,852.367,-6.46184,52.0771,1.09559
75,1,9043.1,-647.732,-1398.18,65.7907,14.4796,-1.66208,1228.27,8595.21,865.465,-6.84422,51.3722,1.49371
76,0,8879.18,-617.735,-1324.16,66.2345,15.0452,-1.0834,1264.05,8543.81,918.076,-7.02715,50.2007,2.61959
76,1,8748.6,-584.247,-1157.9,66.2349,14.9394,-0.640834,1246.25,8556.82,962.407,-7.11881,49.6802,3.26161
77,0,8683.85,-563.858,-985.484,65.4438,13.9654,0.13572,1264.08,8473.28,1072.39,-6.72345,48.6759,4.22069
77,1,8704.05,-581.745,-903.896,63.5858,12.609,1.32416,1252.21,8452.71,1088.2,-6.4941,48.2624,4.5122
78,0,8808.07,-678.563,-811.804,61.6798,11.7541,2.96971,1194.81,8416.9,1171.77,-5.59638,48.3686,4.96853
78,1,9025.74,-823.358,-749.462,59.3486,11.7223,4.78364,1134.94,8389.31,1248.48,-4.66601,48.1865,5.16759
79,0,9263.99,-1005.26,-705.162,56.7117,13.4567,6.47601,1027.31,8517.09,1342.98,-2.99095,47.5165,4.90913
79,1,9416.2,-1178.87,-665.65,54.3482,15.9866,8.03108,992.404,8568.83,1358.73,-2.27183,47.0433,4.72581
80,0,9529.94,-1364.39,-630.926,52.4115,18.7455,9.55547,769.017,8628.58,1423.21,0.497249,45.1259,4.33006
80,1,9557.65,-1534.42,-604.575,51.1298,21.1397,11.0342,654.899,8665.77,1435.35,2.04131,44.4666,3.93352
81,0,9561.24,-1675.73,-577.049,49.8954,22.9851,12.452,652.397,8865.31,1406.65,4.3096,42.3521,4.06963
81,1,9626.95,-1723.79,-559.069,49.0712,23.6884,13.3525,677.513,8969.79,1412.55,5.77577,41.1444,4.37451
82,0,9763.31,-1710.7,-576.956,47.9898,23.8261,14.2211,838.836,9291.23,1367.2,7.86193,39.059,4.35995
82,1,9880.7,-1708.26,-594.936,47.0441,24.1609,14.9076,894.227,9416.35,1350.33,8.61251,38.004,4.3749
83,0,10054.1,-1619.87,-523.295,46.1448,24.4508,15.6542,895.431,9513.17,1292.99,10.9402,35.3104,3.79701
83,1,10218.2,-1546.75,-483.66,45.002,24.3753,16.4925,884.681,9528.95,1212.79,12.0268,33.9036,3.5063
84,0,10389.4,-1474.95,-478.84,42.9611,23.8273,17.2549,838.063,9613.72,1185.15,14.2789,31.2097,3.65815
84,1,10516.4,-1462.84,-496.758,40.4158,23.2935,17.5759,780.602,9697.6,1150.48,15.3194,29.9552,3.67388
85,0,10630.1,-1504.67,-513.533,38.1589,22.9882,17.6676,755.394,9891.27,1024.97,17.2065,26.6227,4.02361
85,1,10687.7,-1564.51,-513.564,36.5268,22.7443,17.2266,665.773,9950.3,964.91,17.9418,24.9556,4.14634
86,0,10686.5,-1569.42,-480.107,35.2002,22.3179,16.8906,536.517,10086.5,878.842,19.4481,20.284,2.91424
86,1,10650.7,-1565.81,-394.008,34.4674,21.6932,16.3729,513.533,10128.7,798.582,19.9847,18.0504,2.04367
87,0,10650.6,-1623.15,-246.865,33.5079,20.0641,15.0787,388.138,10235,748.257,20.6845,12.7852,-0.939034
87,1,10700.8,-1610.17,-80.4757,33.1405,18.0216,13.3261,294.595,10303.4,690.827,21.1884,10.3218,-2.25531
88,0,10698.5,-1541.99,22.6139,33.3379,16.4048,11.1318,51.961,10425.3,538.988,21.6456,5.26946,-5.20733
88,1,10681.8,-1368.62,71.7644,32.502,14.6676,9.08851,-66.9451,10498.5,478.871,21.677,2.74587,-6.84304
89,0,10674.6,-1270.22,102.904,30.7805,13.3403,6.77222,-267.75,10747.1,230.367,21.0987,-4.04094,-10.2219
89,1,10648.3,-1301.15,42.045,28.5252,12.0448,4.78953,-305.315,10866,112.605,20.9603,-7.13219,-12.0106
90,0,10643.4,-1409.98,-23.8495,25.919,10.0189,3.59913,-425.89,10997.5,-207.633,19.2415,-12.7782,-15.0854
90,1,10770,-1613.32,87.1186,23.3273,8.62982,2.39535,-494.349,11051.6,-350.666,18.476,-15.3489,-16.2648
91,0,10937.6,-1800.16,226.044,21.9984,9.44887,1.38867,-542.202,11178.3,-643.439,16.5437,-18.8041,-17.2541
91,1,11176.9,-1918.79,222.738,21.5858,13.1483,0.747835,-598.458,11226.4,-780.417,15.5039,-20.2431,-17.2872
92,0,11400.8,-2108.94,174.854,21.6157,17.2801,0.290321,-573.496,11411.6,-1131.73,12.6735,-22.2368,-16.1456
92,1,11260.3,-2135.69,105.468,22.7416,26.3698,-0.547211,-570.994,11494.5,-1316.66,11.3576,-23.094,-15.382
93,0,11026.9,-2126.05,28.8537,23.5661,34.9721,-1.15775,-502.936,11516.1,-1623.86,8.29897,-23.0338,-14.0118
93,1,10547.4,-2129.63,59.7472,24.3128,37.8183,-1.69119,-443.004,11553.2,-1790.71,6.76947,-23.0334,-13.1869
94,0,10154.3,-1994.66,248.627,24.6491,35.2349,-2.28561,-183.688,11517.4,-2015.49,3.61918,-20.5389,-11.5885
94,1,10120.2,-1751.78,392.464,23.463,32.3061,-2.98663,-28.8845,11487.4,-2118.79,2.16562,-19.1932,-10.9607
95,0,10201.6,-1570.84,399.878,22.1817,32.4221,-3.49017,349.988,11213.8,-2320.77,-1.27343,-13.2746,-8.45042
95,1,10047.6,-1360.28,378.315,21.297,33.8238,-3.73446,490.765,11123.5,-2323.7,-2.56058,-10.2463,-7.16562
96,0,9723.42,-1108.93,463.086,19.3635,33.5228,-3.59795,648.505,10600.3,-2374.89,-4.858,-2.85047,-4.22854
96,1,9408.5,-904.112,557.71,16.5444,32.0606,-3.30842,659.687,10388.5,-2398.99,-5.88356,0.607403,-2.69945
97,0,9250.18,-771.118,608.066,14.6518,31.2813,-3.04917,761.11,9978.69,-2424.08,-6.97955,7.18179,0.648721
97,1,9136.46,-792.373,664.291,11.7584,31.5693,-2.80527,860.585,9809.12,-2411.01,-7.68215,11.3674,2.71126
98,0,9039.45,-834.325,730.124,9.08929,33.3958,-2.42447,1067.41,9402.88,-2357.19,-8.35249,18.1425,6.33441
98,1,8876.8,-968.185,797.161,7.33477,36.1995,-2.18017,1137.23,9205.84,-2345.11,-8.39969,21.1412,7.89536
99,0,8672.14,-1114.28,796.111,7.45319,38.5028,-1.99725,1315.24,8825.8,-2238.81,-8.76437,28.1716,12.1558
99,1,8447.11,-1159.97,761.418,8.67153,40.1652,-1.99685,1377.86,8637.23,-2152.5,-9.17624,31.157,14.0386
100,0,8206.52,-1138.5,705.192,9.89143,40.1837,-2.51417,1475.82,8241.64,-2049.62,-9.31393,36.3765,16.8541
100,1,7983.81,-1173.07,635.776,10.7762,39.2852,-3.1849,1508.35,8023.17,-2027.87,-9.32927,39.3722,18.8391
101,0,7771.92,-1244.86,621.288,12.1621,38.4768,-3.5362,1633.77,7683.66,-1804.52,-9.238,44.1067,21.9453
101,1,7575.56,-1328.64,669.079,13.7931,38.1558,-3.5063,1658.02,7526.29,-1707.11,-9.16169,46.3246,23.2309
102,0,7315.94,-1414.83,756.414,14.7549,38.0185,-3.42998,1702.17,7282.45,-1477.7,-8.73564,49.871,25.0421
102,1,6951,-1518.94,934.605,16.1711,37.5315,-3.04957,1697.54,7142.04,-1374.33,-8.5063,51.3407,25.701
103,0,6655.11,-1596.82,1115.42,18.0913,35.4614,-2.69866,1675.97,6862.34,-1146.1,-7.3804,53.1519,26.8269
103,1,6538.67,-1703.28,1187.46,20.5598,32.0791,-1.98308,1635.32,6754.09,-1011.68,-6.7384,53.9021,27.4233
104,0,6496.72,-1855.24,1204.27,23.5925,29.5157,-1.26632,1669.86,6599.93,-844.272,-5.0948,54.0091,28.9603
104,1,6430.95,-2018.05,1206.68,26.9914,28.0964,-0.823759,1649.68,6518.28,-698.118,-4.25374,53.7962,29.9988
105,0,6418.84,-2141.44,1242.51,30.4214,26.299,-0.412271,1816.81,6650.78,-529.411,-2.50353,52.8981,33.3773
105,1,6489.34,-2219.32,1308.32,33.6991,23.7392,-0.122343,1930.81,6763.48,-437.042,-1.76869,52.4394,34.8163
106,0,6637.66,-2264.85,1387.31,36.4288,21.5429,-0.0153419,2199.73,6960.76,-278.035,-0.201403,50.8265,37.9965
106,1,6816,-2339,1483.05,38.6704,20.6259,0.36507,2298.4,7073.55,-125.919,0.578681,50.1224,39.3438
107,0,6997.96,-2389.35,1637.36,40.7132,20.0315,1.21795,2554.07,7299.47,27.2795,2.31355,48.4182,40.4552
107,1,7187.09,-2499.33,1859.91,41.7215,19.0567,1.87412,2634.83,7372.94,77.7885,2.95712,47.4095,41.1578
108,0,7536.3,-2586.82,2045.58,42.5291,15.8599,2.8336,2970.48,7879.43,156.659,4.76752,44.2899,41.5543
108,1,7856.1,-2662.23,2184.5,43.0177,12.3682,4.2506,3090.9,8113.81,192.71,5.54839,42.9276,41.692
109,0,8395.47,-2806.93,2367.54,44.4788,10.703,5.82063,3512.59,8522.53,275.164,7.20694,39.0173,40.5665
109,1,9046.63,-2881.35,2504.15,47.0838,11.3395,7.49726,3678.64,8695.65,319.587,8.06334,37.1963,39.8635
110,0,9560.5,-2874.28,2619.07,49.8584,12.8328,9.02204,3995.26,8946.62,329.195,10.5893,33.7266,38.3415
110,1,9989.14,-2699.82,2773.41,50.9595,13.5968,10.3029,4145.46,9076.31,330.4,11.7219,32.12,37.5921
111,0,10427.2,-2517.77,2876.5,51.2801,13.7652,11.5224,4523.07,9447.96,369.82,14.7955,28.5743,36.5417
111,1,10808,-2343.01,2975.82,51.2959,12.3658,12.5594,4669.84,9617.4,336.485,16.2034,26.9371,35.9914
112,0,11145.7,-2000.99,2973.66,51.2805,9.65419,13.8088,5104.72,10121.6,324.407,18.7601,24.7148,34.6369
112,1,11490.4,-1510.38,2867.26,50.0484,7.48779,14.3745,5330.51,10350,318.444,19.8013,23.8419,34.1161
113,0,11807.7,-1092.37,2770.23,46.2116,4.1829,14.8163,5569.66,10644,262.28,21.2927,23.0504,32.4426
113,1,11985.2,-813.224,2723.46,41.6385,0.493679,15.0303,5651.49,10792.9,244.209,22.0421,22.9874,31.2514
114,0,12276.9,-432.837,2582.43,35.9701,-2.29782,14.7872,5737.53,10952,194.038,22.5905,23.0944,29.3481
114,1,12424.6,18.4167,2484.1,28.5645,-3.33754,14.6039,5725.82,10973.9,198.673,22.9721,23.0641,28.4611
115,0,12394.9,413.598,2516.2,18.5082,-5.25534,14.5732,5547.72,10933.2,187.983,23.642,23.0944,27.1216
115,1,12474.8,518.322,2586.82,6.84843,-6.5838,14.0712,5406.29,10882.9,196.294,23.8871,23.1098,26.5704
116,0,12550.3,468.182,2579.81,-4.23575,-3.22419,13.1723,5119.36,10733.5,190.362,24.3132,22.9729,26.2506
116,1,12353.3,292.43,2639.46,-14.1614,3.00754,12.0598,4968.11,10648.3,161.662,24.725,22.7899,25.8391
117,0,11762.6,-43.6863,2816.45,-22.7916,7.6157,11.1294,4691.98,10635,167.563,25.7298,22.2876,26.325
117,1,10968,-640.571,3337.71,-27.3879,8.41503,10.4127,4642.28,10674.5,140.13,26.1279,22.3167,26.5244
118,0,10609,-1131.77,3663.97,-31.563,3.24266,9.8332,4736.75,11329.2,-3.3073,26.98,21.1916,27.8934
118,1,11088.8,-1143.44,3211.71,-34.8277,-4.81873,9.14752,4714.29,11598.6,-80.1367,27.1648,20.6558,28.5818
119,0,11485.7,-1017.74,2710.94,-36.5527,-6.17544,9.23722,3894.69,11043.3,-141.15,28.3663,18.2824,28.978
119,1,11616.5,-459.618,1517.85,-38.3505,-2.17265,10.0138,3449.22,10703.6,-168.768,29.0999,17.1806,29.1766
120,0,11316.9,237.11,-17.8415,-47.6945,-0.686465,9.65066,2476.36,10299.4,-394.568,31.2609,13.7419,31.0327
120,1,10926.5,411.803,-1601.57,-62.9463,-4.71682,7.76277,2136.89,10233.9,-562.438,32.1338,12.12,32.1027
121,0,10838.5,-25.4001,-3037.22,-75.9262,-12.0756,5.59793,1900.28,11237.5,-901.954,32.7884,7.06838,35.3592
121,1,11081,-616.753,-4198.88,-82.5988,-19.1051,4.19393,1856.63,11676.3,-994.814,32.5315,4.78796,36.4481
122,0,11548.8,-1045.67,-5196.26,-84.2066,-24.0327,3.99371,1623.79,11827.1,-1163.21,30.8265,0.648646,34.273
122,1,11990.7,-1196.98,-6138.43,-84.8769,-25.0307,4.11566,1330.43,11826.2,-1228.21,29.8029,-0.625098,32.9434
123,0,12081.2,-1528.03,-6649.3,-86.43,-23.8592,3.78127,574.877,11336.4,-1241.37,27.2612,-1.88751,29.2301
123,1,11811.2,-2338.82,-6279.78,-89.3545,-21.4677,2.42642,179.918,11197.6,-1198.4,26.0071,-2.68215,27.5012
124,0,11535.7,-3013.36,-5687.16,-89.8179,-20.0169,0.551907,-334.206,11509.5,-1232.91,23.2069,-1.43586,23.8945
124,1,11164.8,-4045.5,-4590.52,-84.8123,-20.7601,-1.35368,-502.752,11726.6,-1260.52,21.6782,-0.564904,22.3332
125,0,10939.4,-5188.82,-3343.1,-75.1392,-23.8356,-2.78758,-475.318,12689.7,-1242.64,17.5845,4.13657,17.9055
125,1,10941.4,-6161.2,-2095.73,-59.1139,-27.9049,-3.61173,-421.472,13158.2,-1188.82,15.7785,6.62905,15.5964
126,0,11253.3,-6618.29,-1161.32,-40.7614,-31.8384,-3.27851,-407.014,13630.5,-1022.65,12.0047,13.6138,10.7871
126,1,11951.8,-6851.87,-705.622,-21.8597,-32.9418,-1.87764,-450.018,13828.8,-918.291,10.4276,16.9945,8.67505
127,0,12991.5,-6503.51,-995.19,-4.06747,-25.0475,0.863922,-736.831,13851.6,-688.785,7.93191,26.0029,6.10264
127,1,13943.6,-5501.34,-1822.88,9.34042,-4.3526,4.38439,-907.234,13802.7,-531.697,6.90598,30.0889,5.30488
128,0,14229.8,-4195.61,-2711.24,14.4772,12.6139,6.62827,-1381.69,13574.4,-352.27,7.83322,37.5155,6.2632
128,1,13737.8,-3127.19,-3460.88,15.3198,35.8575,8.76163,-1557.37,13506.9,-280.168,8.44454,40.6538,6.90481
129,0,13106.8,-2621.01,-3800.45,12.9929,55.6273,10.2876,-1870.42,13196.3,-57.9208,10.1338,44.109,9.75025
129,1,11881.1,-2088.69,-3826,8.59003,62.9816,10.701,-2012.24,13001.9,17.9488,11.0358,45.7306,11.5378
130,0,10693.1,-1799.54,-3307.48,3.54478,57.8485,10.4579,-1968.16,12491.6,252.09,13.4859,47.8313,17.9442
130,1,10174.7,-1738.22,-2842.55,-0.664486,46.8484,10.2746,-1973.97,12305.1,373.404,14.6334,48.6582,21.1865
131,0,10212.2,-1991.42,-2535.9,-3.42607,38.4567,10.4721,-1688.54,11698.2,584.961,17.266,49.3584,29.1606
131,1,10424,-2332.61,-2326.27,-3.84186,35.2773,10.5488,-1543.16,11400.2,636.888,18.4748,49.3907,32.7113
132,0,10467.5,-2529.24,-2204.02,-3.00471,35.3191,9.81864,-1398.49,10812.2,689.408,21.1074,48.4166,38.8443
132,1,10358.7,-2588.09,-2046.13,-2.10503,35.6704,8.75176,-1308.53,10582.5,697.933,22.6814,47.5165,41.7967
133,0,10115.9,-2459.14,-1843.87,-2.02715,35.9599,8.15617,-984.676,10098.5,576.058,24.8435,45.0354,45.6024
133,1,9813.13,-2313.01,-1561.51,-3.53347,36.5842,7.36427,-841.646,9901.31,504.048,25.8985,43.9489,47.179
134,0,9491.14,-2225.53,-1337.48,-5.57595,36.677,6.67781,-498.699,9508.19,245.934,26.9036,40.9665,48.1385
134,1,9326.79,-2160.87,-1198.49,-7.78603,36.9658,5.83988,-377.11,9348.23,116.218,27.4233,39.4524,48.2778
135,0,9134.23,-2102.2,-1071.61,-9.67705,38.6704,4.83398,-154.893,9047.11,-143.131,27.1349,36.6672,47.4103
135,1,8853.04,-2141.5,-913.656,-10.6696,42.2192,3.52359,-34.8155,8849.18,-271.642,26.7384,34.9713,46.906
136,0,8562.12,-2177.49,-885.824,-10.7624,46.4261,2.02988,203.032,8485.76,-663.587,25.5511,32.3678,45.5972
136,1,8170.89,-2287.44,-933.647,-10.0472,50.6031,0.368585,292.062,8349.83,-808.005,24.9091,31.129,45.0917
137,0,7751.89,-2426.3,-1059.2,-8.03734,53.9281,-0.97366,522.651,8058.29,-1118.64,22.9917,28.1919,43.2356
137,1,7353.22,-2525.74,-1171.8,-5.24859,55.5166,-2.14754,637.971,7909.36,-1235.38,22.1043,27.0279,42.5307
138,0,7046.58,-2597.6,-1268.77,-2.41302,55.5645,-2.89537,830.405,7672.69,-1448.05,20.1868,25.1259,41.4048
138,1,6897.86,-2639.55,-1343.04,-0.748999,55.2597,-3.32259,976.651,7513.19,-1575.26,19.4819,24.3753,40.7628
139,0,6835.52,-2626.49,-1428,1.03347,54.7722,-3.55154,1267.17,7398.27,-1759.39,17.6715,22.9603,40.4882
139,1,6812.72,-2640.76,-1440.14,2.43708,54.1322,-3.73447,1416.04,7344.27,-1829.14,16.6168,22.5913,40.2443
140,0,6798.36,-2658.74,-1461.61,3.79349,52.5488,-4.14556,1640.79,7217.57,-2027.48,15.0031,21.8005,39.4984
140,1,6830.58,-2676.69,-1437.79,4.46578,50.0653,-4.45083,1752.46,7181.4,-2028.03,14.284,21.4788,39.2683
141,0,6914.3,-2731.68,-1416.19,4.57317,47.1542,-4.5122,1910.27,7042.84,-2153.27,13.0208,20.642,37.7167
141,1,7045.91,-2744.96,-1351.66,4.57317,44.4402,-4.60347,1990.71,6952.85,-2227.75,12.7132,20.3202,36.9213
142,0,7132.22,-2715.09,-1205.75,3.56922,42.3202,-4.58851,2134.15,6866.72,-2264.85,11.6487,19.666,35.5059
142,1,7199.26,-2737.7,-1023.82,2.41029,40.8253,-4.52754,2182.31,6878.47,-2324.66,11.2349,19.3143,35.1066
143,0,7269.88,-2719.87,-915.912,1.49527,40.1227,-4.42093,2355.53,6883.35,-2363.03,10.535,19.2683,33.8898
143,1,7327.37,-2624.23,-820.175,0.778511,40.3651,-4.25334,2459.94,6863.02,-2395.35,10.0767,19.1314,33.1562
144,0,7365.71,-2459.14,-730.369,0.01651,41.0811,-4.07042,2618.95,6885.66,-2439.61,9.81747,19.131,31.9536
144,1,7363.39,-2363.18,-676.431,-1.36942,41.5087,-4.2982,2645.64,6902.47,-2512.58,9.57356,19.1463,31.4941
145,0,7345.44,-2346.32,-543.744,-2.31591,41.0834,-4.75532,2717.25,6958.63,-2550.98,9.19276,19.3289,30.642
145,1,7401.54,-2296.15,-413.191,-2.77381,40.1845,-5.69947,2740.17,6962.37,-2600.01,9.17664,19.2077,29.9095
146,0,7482.95,-2236.28,-282.73,-2.86585,39.4371,-7.16211,2842.89,6932.46,-2632.39,8.61407,19.6027,28.7522
146,1,7550.02,-2218.24,-162.989,-2.86585,38.9032,-8.6562,2899.33,6906.11,-2613.32,8.18647,19.9386,28.2777
147,0,7590.76,-2209.86,-73.1531,-2.59205,38.6892,-10.3022,2931.65,6835.58,-2615.64,7.51651,20.4564,27.9579
147,1,7624.28,-2157.28,-24.0032,-2.40873,38.5673,-11.7357,2958,6856.9,-2604.92,6.99764,20.8836,28.0484
148,0,7586.13,-2093.83,35.806,-2.92566,38.491,-13.214,3100.2,6846.27,-2618.02,6.38827,21.797,27.8816
148,1,7538.21,-1974.24,102.844,-3.4292,38.2475,-14.0995,3156.73,6805.59,-2641.96,6.12825,22.1188,27.5311
149,0,7509.45,-1889.13,234.387,-4.26674,37.2581,-15.4092,3275.02,6837.75,-2647.99,5.45868,23.5488,27.8041
149,1,7507.01,-1843.6,323.11,-5.24235,36.5862,-16.5685,3345.83,6880.87,-2676.66,5.01573,24.07,27.9268
150,0,7440.13,-1769.45,422.401,-6.21796,36.3265,-17.5138,3596.78,6955.02,-2614.62,4.52832,25.5457,28.3376
150,1,7427.99,-1690.43,532.534,-7.2392,35.9611,-18.5197,3688.24,7023.29,-2601.28,4.02517,26.5842,28.6582
151,0,7485.36,-1588.73,578.162,-8.45833,35.2148,-19.1912,3914.05,7167.96,-2590.56,3.76554,27.8635,29.5409
151,1,7625.27,-1457.09,566.267,-10.1952,34.498,-19.8769,4035.33,7254.34,-2596.49,3.26317,28.7793,29.8627
152,0,7798.83,-1332.56,502.905,-12.3136,34.1011,-20.4717,4341.27,7451.56,-2546.35,2.56214,29.9674,30.9277
152,1,8069.18,-1198.52,458.543,-15.0107,34.07,-20.9748,4496.19,7591.85,-2535.44,2.37805,30.4874,31.4174
153,0,8363.68,-1095.49,464.445,-18.698,34.5417,-21.7821,4737.65,7718.69,-2459.01,1.37409,31.4158,32.5587
153,1,8673.69,-1112.02,394.007,-21.4749,35.0146,-22.4229,4819.51,7824.1,-2411.01,1.03659,31.7073,32.8812
154,0,8939.55,-1265.04,368.707,-25.9065,35.3958,-23.2455,4950.93,7869.7,-2346.44,0.306434,31.4335,33.2766
154,1,9102.54,-1562.88,436.797,-31.1197,35.1684,-24.3427,4893.96,7841.09,-2312.83,-0.0759279,31.4327,33.5516
155,0,9190.03,-1761.89,491.94,-35.2227,33.2356,-24.9536,4910.4,7922.21,-2279.34,-0.258855,29.9119,33.1412
155,1,9351.45,-2015.46,506.366,-37.7101,30.2946,-25.4261,4912.93,7917.7,-2280.45,-0.441782,29.0252,32.9422
156,0,9589.57,-2406.69,543.407,-39.0988,27.0023,-25.9595,4825.69,8034.67,-2248.23,-0.579074,26.0275,32.4705
156,1,9990.29,-2972.62,544.704,-38.2038,25.9304,-26.2801,4801.56,8164.04,-2239.77,-0.655391,24.6046,32.2258
157,0,10153.7,-3452.94,677.269,-35.1581,28.683,-26.2958,4838.61,8465.32,-2276.81,-0.944539,20.2072,31.7388
157,1,9962.72,-3781.18,1063.5,-32.1691,27.9913,-25.8242,4940.24,8718.14,-2303.19,-1.12785,18.096,31.4941
158,0,9917.93,-3929.92,1507.65,-29.7293,23.7883,-25.2144,5081.46,9041.13,-2347.43,-1.38671,14.1695,30.5964
158,1,10012.4,-3865.63,2041.35,-29.192,19.3209,-24.8328,5179.73,9192.41,-2396.52,-1.82849,12.1967,30.168
159,0,10324.4,-3774.59,2538.3,-29.4355,17.1365,-24.7105,5390.14,9639.35,-2401.4,-3.09209,7.79847,28.114
159,1,10684.8,-3721.86,2958.59,-29.2384,16.677,-24.467,5468.33,9804.21,-2406.16,-3.56688,5.99173,27.3021
160,0,10874.2,-3696.68,3163.72,-27.321,17.9698,-23.9795,5652.33,10083.8,-2444.4,-5.37732,3.11558,25.8414
160,1,11112.3,-3670.36,3374.25,-24.0605,20.24,-23.7502,5762.74,10175.4,-2438.53,-6.38633,1.92131,25.0921
161,0,11363.7,-3648.79,3458.37,-20.6608,22.816,-23.8108,5987.46,10329.5,-2443.26,-8.44105,1.14475,24.3155
161,1,11661.7,-3636.81,3344.96,-17.1703,26.1224,-24.024,6050.16,10438.6,-2454.04,-9.49608,0.914635,23.9485
162,0,11884.5,-3634.4,3131.98,-13.7249,30.3892,-24.3592,6130.18,10429.2,-2424.2,-11.8246,1.37098,24.1306
162,1,11850.3,-3655.9,2945.14,-9.99087,33.3042,-24.7707,6204.48,10369.4,-2406.19,-12.7435,1.61566,24.0248
163,0,11700.7,-3673.88,2697.5,-6.60575,34.0394,-24.9237,6155.63,10108.8,-2364.36,-14.0827,2.92412,24.1916
163,1,11555.8,-3691.83,2406.64,-3.73912,33.3552,-25.0303,6123.19,10062.8,-2340.36,-14.5578,3.49056,24.3596
164,0,11381.1,-3693.06,2278.2,-2.09045,32.7903,-24.7415,6001.32,9823.94,-2247.15,-14.847,4.44928,24.4359
164,1,11180.1,-3623.77,2235.04,0.0570977,31.5877,-24.2234,5943.64,9660.77,-2199.11,-14.7565,5.25808,24.4512
165,0,11053,-3565.04,2223.02,1.53779,29.2572,-23.5378,5790.69,9311.74,-2078.41,-14.6495,6.20262,24.4969
165,1,10934.5,-3373.81,2175.23,1.23602,27.9587,-22.4866,5737.71,9199.73,-2029.11,-14.3603,6.78286,24.3753
166,0,10795.7,-3170.23,2227.66,-1.38206,27.3332,-21.0999,5679.17,8965.58,-1821.22,-13.4925,8.21366,24.1467
166,1,10616.2,-3025.28,2361.64,-3.42726,26.3737,-19.5452,5588.22,8883.69,-1698.8,-12.821,8.79545,23.8116
167,0,10510.7,-2723.98,2416.91,-5.94067,24.546,-18.3249,5797.06,9291.03,-1601.89,-11.9071,10.4387,23.6739
167,1,10631.2,-2490.27,2379.93,-9.52134,22.3815,-17.0448,5968.55,9507.21,-1518.05,-11.0987,11.2951,23.8867
168,0,11065.2,-2348.91,2060.86,-13.5453,24.0198,-15.7034,5860.11,9479.96,-1255.08,-9.63686,11.9044,24.0091
168,1,11474.8,-2314,1535.58,-16.7636,31.1906,-14.4075,5759.37,9393.79,-1097.9,-8.79661,12.3014,24.0244
169,0,11393.2,-2431.06,1103.15,-17.4087,37.0045,-13.5834,5207.33,8750.93,-775.156,-5.92045,11.9217,23.7506
169,1,10836,-2567.58,862.217,-14.0011,42.1563,-12.8214,4830.72,8420.67,-703.834,-4.49802,11.7683,23.978
170,0,10231.4,-2463.92,631.26,-6.61388,41.1483,-13.2152,4556.61,8046.42,-401.691,-1.77372,10.9925,25.1806
170,1,9958.95,-2231.79,422.888,1.69415,34.3421,-14.7381,4475.98,7963.05,-232.374,-0.458286,10.6404,25.777
171,0,9906.03,-1728.35,-78.0506,7.56819,25.7457,-16.3694,4945.42,8689.43,-70.9255,1.42925,10.0621,27.5878
171,1,10185.5,-1071.29,-921.497,7.88313,19.7033,-17.3616,5172.53,9045.05,-6.02352,2.05783,9.74115,28.0795
172,0,10664.2,-552.601,-1799.07,1.81098,19.373,-17.3784,5367.44,9388.22,132.597,3.62476,8.64552,27.6837
172,1,10882.7,-528.921,-2177.18,-4.82235,22.205,-16.5413,5518.44,9458.36,184.338,4.23761,7.92761,27.8348
173,0,10780.2,-649.836,-2184.81,-7.68022,21.0865,-15.5047,5718.19,9572.95,376.684,5.59171,7.34853,28.1094
173,1,10749.9,-665.618,-2090.31,-7.69904,14.6312,-14.6507,5785.57,9618.7,462.035,6.21913,6.78441,28.4446
174,0,10926.8,-431.443,-2214.32,-5.59868,7.0242,-13.858,5921.78,9670.07,691.453,6.64557,6.82888,29.2211
174,1,11174.5,-157.238,-2336.59,-3.52434,3.02275,-13.5216,5959.18,9611.68,801.982,6.63139,7.11842,29.3143
175,0,11367.4,170.631,-2396.52,0.784554,-0.968642,-13.7494,5938.85,9496.79,1003.96,7.04172,8.01655,28.4925
175,1,11403.6,401.922,-2315.39,5.67833,-3.89857,-14.526,5911.33,9438,1096.48,7.24076,8.61213,27.6385
176,0,11469.3,675.883,-2069.05,9.94779,-7.70664,-15.7144,5947.11,9578.88,1202.88,6.43467,8.81079,23.7426
176,1,11757.4,1024.14,-1792.49,10.9756,-10.6972,-16.9949,5968.73,9701.15,1296.33,6.15854,9.16091,22.0893
177,0,12233.5,1176.62,-1304.53,8.37442,-8.60337,-18.0929,6175.41,9890.1,1413.57,4.1506,9.95282,18.2092
177,1,12600.2,1032.25,-769.375,4.35119,-0.3357,-19.0382,6283.5,10031.5,1442.51,3.11053,10.4111,16.0842
178,0,12726.3,636.382,-393.166,0.23514,12.0369,-18.9945,6461.6,10142.9,1584.66,0.751692,11.72,11.2292
178,1,12688.2,23.8009,-124.894,-2.80062,24.356,-18.081,6552.85,10106.1,1675.85,-0.410715,12.3167,9.05624
179,0,12519.6,-656.122,177.859,-3.61252,36.0487,-16.0708,6787.09,10184.7,1787.07,-2.69363,14.1122,5.87519
179,1,12171.6,-1233.35,466.429,-3.38473,41.7472,-14.7577,6872.53,10182.6,1898.43,-3.68845,15.2884,4.4217
180,0,12042.9,-1559.42,489.713,-2.0149,45.3754,-12.7324,6567.95,9647.35,2025.28,-4.69319,17.0394,2.03218
180,1,11993.8,-1666.27,345.038,-0.216316,51.1635,-10.8564,6396.25,9353.2,2080.52,-5.09127,17.6523,1.18922
181,0,11511.1,-1659.23,0.637889,-1.26205,58.2355,-10.1074,5635.12,8277.75,2252.59,-3.616,18.2762,-0.484324
181,1,10568.5,-1748.76,-132.81,-2.49845,57.7336,-9.58929,5333.2,7764.75,2325.93,-2.69904,18.2931,-1.12786
182,0,9566.4,-1634.35,-254.747,-1.73993,51.6119,-8.26471,4562.55,6695.14,2364.21,1.04419,16.7714,-1.06727
182,1,8601.49,-1348.44,-313.595,-0.900454,43.1087,-6.81625,4194.88,6250.28,2392.97,2.98626,15.6872,-1.21913
183,0,7676.06,-1125.58,-195.393,-0.138452,33.8715,-5.55072,3654.61,5545.19,2316.56,7.70394,12.6584,-0.869773
183,1,6929.91,-916.124,79.7123,-0.669185,25.0899,-4.3312,3460.87,5269.74,2263.77,10.8958,10.3839,-0.366627
184,0,6430.32,-811.741,333.619,-1.82734,18.2264,-2.97479,3194.41,4815.67,2086.9,15.9813,6.74457,0.577529
184,1,6120,-744.703,421.319,-2.54486,15.0491,-1.84616,3129.18,4675.86,1958.61,18.2302,4.98621,1.26437
185,0,5934.28,-699.168,448.875,-3.04801,13.0519,0.103133,3218.83,4660.35,1640.65,22.7197,1.19656,2.49768
185,1,5837.19,-585.602,372.473,-2.3493,13.0173,2.22233,3250.12,4665.08,1520.36,24.5571,-0.456351,3.13967
186,0,5724.73,-464.657,301.76,-1.11483,15.0874,3.79351,3444.85,4769.04,1215.69,26.6118,-2.57207,4.28132
186,1,5524.98,-278.061,283.72,-1.11213,17.694,5.10468,3556.49,4774.1,1133.62,27.6668,-3.68806,4.99923
187,0,5307.09,-242.974,250.262,-1.26515,19.814,6.33953,3711.91,4735.79,867.277,28.7176,-4.34345,5.85212
187,1,5084.44,-241.83,149.827,0.408013,18.662,7.37651,3794.73,4708.24,729.133,28.705,-4.32966,6.23447
188,0,5121,-96.0714,40.8682,2.2534,14.7328,8.44339,4039.72,4809.72,541.454,28.5063,-3.67504,7.14756
188,1,5474.86,106.216,-85.979,2.9111,11.3158,9.0846,4168.2,4838.7,390.452,28.4756,-3.29307,7.57593
189,0,5970.32,315.701,-184.217,2.48582,11.7353,8.93351,4400.09,4961.72,219.365,27.6542,-1.90829,8.67156
189,1,6236.61,429.63,-170.064,2.13453,13.8683,8.7502,4526.12,5032.55,158.048,27.1042,-1.0527,9.11566
190,0,6354.06,442.942,-21.8359,2.16444,14.5425,8.53697,4694.71,5074.44,31.3824,25.7344,0.773867,9.6027
190,1,6464.16,397.528,199.544,2.46893,13.843,8.33871,4738.14,5113.95,-38.2466,25.168,1.524,9.71047
191,0,6518.16,408.158,312.33,3.1086,12.0916,8.01888,4922.08,5159.43,-108.807,24.1636,3.1826,9.60386
191,1,6720.11,470.347,412.825,3.29268,10.2163,7.74429,4981.14,5203.73,-154.373,23.6589,3.81078,9.52754
192,0,7003.77,570.843,497.873,2.42562,8.9803,7.59166,5069.53,5375.84,-259.566,22.913,4.7998,8.7364
192,1,7260.03,609.302,621.076,0.765092,8.08062,7.60661,5110.4,5465.89,-327.93,22.3179,5.21322,8.2018
193,0,7486.32,616.499,781.442,-0.516556,7.40951,7.8045,5174.94,5621.28,-368.646,21.6019,4.97009,7.10579
193,1,7703,671.46,956.203,-1.52285,6.02395,8.00276,5231.25,5694.56,-417.705,21.3112,4.60424,6.44885
194,0,7986.57,718.2,1108.29,-2.681,4.65142,7.86624,5297.06,5925.18,-477.545,20.3678,3.14314,4.0597
194,1,8275.11,709.919,1241.19,-3.99178,4.14673,7.71361,5358.13,6067.96,-564.88,20.1066,2.40912,3.11014
195,0,8536.12,603.551,1431.4,-4.87689,4.131,7.6373,5551.77,6413.38,-603.309,19.0267,-0.0559597,1.04083
195,1,8739.74,447.973,1599.08,-5.33479,4.46579,7.89577,5622.76,6568.39,-633.213,18.6129,-1.12747,0.365854
196,0,8869.15,378.344,1659.14,-5.65501,5.44024,8.39853,5884.4,6924.51,-612.976,17.1372,-2.81675,-1.04884
196,1,9079.62,279.114,1677.12,-6.50751,7.05513,9.31239,6028.48,7067.62,-614.09,16.3725,-3.67311,-1.75257
197,0,9295.16,148.653,1702.23,-7.86354,9.09724,10.4402,6348.79,7414.13,-574.699,14.6833,-4.96701,-2.97015
197,1,9501.06,-21.26,1788.3,-9.5095,10.6381,11.7357,6482.23,7584.71,-588.913,13.8725,-5.5484,-3.71874
198,0,9757.14,-292.813,1933.07,-10.8974,11.5232,12.9859,6715.27,7801.09,-494.622,12.0007,-6.24865,-4.38909
198,1,10105.3,-608.817,2083.92,-11.4021,12.118,14.0229,6818.63,7838.68,-463.27,11.1743,-6.46342,-4.57317
199,0,10503.9,-1037.15,2225.19,-11.144,13.4426,14.7247,6957.28,8001.06,-328.293,9.72851,-6.28088,-5.1208
199,1,10871.5,-1490.88,2328.22,-10.1239,15.8951,15.6082,7047.23,8101.89,-264.597,9.13139,-6.08261,-5.44179
200,0,11211.5,-1912.32,2304.52,-9.26945,17.9088,15.9449,7234.91,8198.77,-108.057,8.08139,-5.26079,-5.85289
200,1,11485.8,-2288.28,2131.17,-6.89488,21.4569,16.3863,7375.16,8219.31,-50.2934,7.47009,-4.81746,-6.11252
201,0,11667.9,-2422.84,1884.65,-2.91843,25.2381,16.7069,7556.97,8313.66,99.049,7.65186,-3.29577,-7.07125
201,1,11732.7,-2383.54,1747.92,1.50211,27.7558,16.6314,7594.44,8364.11,126.938,7.83518,-2.53107,-7.42369
202,0,11712.5,-2254.38,1716.66,5.9077,27.6994,16.631,7808.23,8545.73,212.887,9.00674,-1.25251,-7.62157
202,1,11652.7,-2023.51,1750.09,10.6174,23.8035,16.7833,7903.21,8662.1,222.706,9.80097,-0.123493,-7.7742
203,0,11746.9,-1596.5,1794.39,14.6587,17.4498,16.5555,8043.04,8903.57,215.478,11.7644,1.35411,-8.07869
203,1,12049.5,-826.172,1755.06,17.1614,11.8071,16.9198,8080.45,9010.51,236.981,12.5606,1.81393,-8.39891
204,0,12346.5,-23.9777,1741.77,15.6293,9.89455,17.8033,7787.75,9007.02,208.371,15.5426,2.19435,-9.84468
204,1,12423.5,523.589,1875.58,10.4211,9.7864,18.277,7607.75,8973.53,174.822,16.9808,2.27144,-10.6243
205,0,12386.5,706.153,2206.85,3.60873,9.13255,18.9013,7318.43,8881.46,74.4169,19.5528,1.70847,-13.0135
205,1,12258.6,602.406,2672.35,-0.680679,8.85681,19.5417,7155.23,8821.5,28.7607,21.096,1.15931,-14.0999
206,0,12005,434.812,3115.38,-5.44904,9.84545,20.6078,6746.47,8771.24,-115.824,23.0756,0.0326063,-16.8542
206,1,11771.4,274.386,3387.45,-9.68896,11.7345,21.5992,6574.57,8747.24,-130.552,23.7042,-0.304878,-18.3372
207,0,11398.3,-109.407,3675.81,-10.762,14.4466,22.6051,6287.75,8818.88,-349.07,24.2671,-0.441785,-21.7311
207,1,10997.2,-615.683,3818.62,-9.87998,17.0084,23.6873,6214.11,8901.52,-458.422,24.4969,-0.350899,-23.0787
208,0,10959.3,-1323.97,3607.36,-8.61483,19.3105,25.013,6374.24,9404.6,-695.039,23.4626,1.42927,-24.0835
208,1,11334.6,-2012.48,2679.71,-3.95732,26.4952,26.7806,6433.2,9603.07,-778.1,22.7903,2.51419,-24.4359
209,0,11593.6,-2150.05,1258.15,1.24211,38.4399,28.4426,6227.76,9554.19,-941.778,21.6333,5.42106,-22.4889
209,1,11414.8,-1986.32,-5.32353,3.82343,49.6935,29.5716,6025.29,9415.45,-1056.91,21.2349,7.11727,-21.1904
210,0,10891,-1705.16,-943.16,4.86156,56.2115,29.3607,5253.22,8734.2,-1270.91,20.3981,10.5269,-15.0886
210,1,10156.2,-1463.2,-1477.75,5.51733,57.6369,28.8422,4929.83,8400.31,-1350.3,20.0763,11.7679,-12.1058
211,0,9433.07,-1364.79,-1574.21,6.85726,54.4885,27.4417,4656.05,8260.21,-1559.39,19.8328,14.7043,-4.32971
211,1,9109.05,-1486.51,-1570.6,8.62517,46.4781,25.8257,4555.01,8341.16,-1699.73,19.7561,15.9902,-0.551474
212,0,9084.75,-1919.33,-1728.28,11.9604,36.5252,24.2403,4810.6,9021.2,-2053.53,19.893,17.5123,5.21741
212,1,9433.63,-2271.63,-2286.59,15.9388,28.3046,23.3395,4937.96,9355.09,-2261.12,20.2585,18.0334,7.42292
213,0,9942.29,-2518.34,-2954.59,19.0048,21.2,23.6727,5151.9,10115.2,-2702.19,20.7309,17.9119,6.73954
213,1,10558.6,-2465.06,-3605.85,18.2804,15.9373,24.2522,5201.44,10425.4,-2911.2,20.9906,17.729,6.0527
214,0,10982.8,-2241.37,-3890.32,9.13413,13.7978,25.0292,4912.3,10792.3,-3300.83,21.4017,15.2186,-1.66087
214,1,11153.2,-2261.15,-3562.15,-5.23502,9.91604,26.111,4713.21,10900.8,-3513.3,21.57,14.0252,-5.62202
215,0,11413.9,-2765.5,-2896.93,-17.528,2.78689,26.9501,4355.73,11156.4,-3787.11,21.9048,10.4798,-13.5818
215,1,12087.1,-3577.96,-2141.62,-23.1953,-1.626,26.9973,4211.48,11296.9,-3937.12,22.286,8.5991,-17.5123
216,0,13021.7,-4420.78,-1300.22,-27.3408,-4.76644,25.3996,4192.26,11906.3,-4214.46,21.9217,4.83972,-24.605
216,1,13928.1,-4813.16,-598.372,-26.9999,-2.99319,23.2808,4161.18,12194.7,-4339.41,21.8139,3.06528,-27.6507
217,0,14422.1,-4727.66,-335.4,-23.1017,4.7112,21.2836,4330.73,12722.9,-4542.6,19.5475,0.857887,-32.6729
217,1,14958,-4058.28,-204.908,-20.6278,12.8536,18.5109,4466.22,12983.6,-4645.87,18.3698,0.04602,-34.6334
218,0,15734.6,-3280.06,-150.88,-21.6433,21.9819,15.6447,4785.39,13573.9,-4788.13,15.5848,-0.0912713,-36.9466
218,1,16482.9,-2783.9,-290.586,-24.5528,38.4004,13.57,4841.17,13847.9,-4856.59,13.6911,0.106227,-38.3218
219,0,16452.2,-2204.87,-390.149,-26.8262,61.364,11.832,4712.03,13776.4,-4836.35,10.1592,1.96272,-39.4037
219,1,15234.3,-1499.92,-414.182,-30.1009,78.2244,9.57702,4583.89,13635.2,-4787.29,7.99011,2.92606,-39.832
220,0,13379.5,-1076.7,-208.733,-34.4593,78.6805,5.90583,3776.1,12570.5,-4641.44,3.8342,5.83256,-37.3225
220,1,11835.6,-931.48,122.751,-36.8876,66.1218,2.04864,3392.84,11991.8,-4586.12,2.19589,7.49847,-35.9614
221,0,10751.5,-1053.15,343.289,-37.6822,57.6013,-0.0433305,2670.97,11057,-4396.15,-0.710605,9.79751,-30.5446
221,1,9720.91,-1366.53,448.785,-37.3029,47.9591,-2.38916,2330.99,10622.2,-4304.84,-2.46778,10.8529,-26.6813
222,0,9105.89,-1620.53,465.68,-35.8107,37.212,-4.78294,1860.01,9655.35,-4026.42,-5.39078,11.8883,-19.541
222,1,8353.51,-1969.81,450.14,-33.6317,26.891,-7.23692,1671.24,9246.62,-3882.31,-6.59994,12.4233,-16.4653
223,0,7656.48,-2330.21,556.418,-30.1737,18.1228,-9.9651,1509.85,8424.46,-3573.96,-9.35419,12.8195,-9.67827
223,1,7124.72,-2453.98,550.757,-25.7847,12.0206,-12.5874,1442.54,8051.93,-3447.71,-10.609,13.155,-6.76983
224,0,6674.52,-2433.77,504.047,-24.1778,10.762,-14.5551,1486.69,7485.39,-3194.38,-12.4659,13.4143,-1.41319
224,1,6091.84,-2462.35,554.13,-23.7506,13.1201,-15.4107,1503.56,7174.5,-3094.54,-13.0944,13.4756,0.898143
225,0,5384.52,-2454.1,674.954,-22.8827,15.5453,-15.0468,1560.9,6499.19,-2830.49,-14.1594,13.7494,4.15516
225,1,4856.16,-2188.84,740.938,-21.4354,15.5043,-14.2848,1590.92,6208.33,-2761.67,-14.6491,14.024,5.73056
226,0,4586.42,-1980.26,698.023,-21.4017,15.3049,-13.8116,1730.72,5701.6,-2610.01,-15.334,14.4961,8.60715
226,1,4520.28,-2032.48,583.191,-23.2129,16.0351,-13.1719,1798,5504.34,-2510.42,-15.6401,14.6798,10.0142
227,0,4558.47,-2110.39,489.742,-24.1912,17.2845,-12.0751,2023.84,5305.94,-2451.75,-15.7164,15.2428,12.6929
227,1,4698.36,-2176.22,282.907,-24.0098,19.0823,-10.8556,2125.99,5185.96,-2433.71,-15.7773,15.6094,13.9473
228,0,4858.78,-2089.16,-48.5164,-23.6286,21.8093,-10.4119,2307.65,4980.33,-2364.42,-16.0209,15.6707,15.2263
228,1,4927.21,-1875.04,-257.128,-24.2211,24.5233,-10.8222,2397.73,4874.68,-2348.7,-16.1888,15.762,15.7467
229,0,4922.51,-1746.71,-336.303,-26.0485,25.8218,-11.7971,2415.73,4659.54,-2304.52,-15.5806,15.9752,16.4316
229,1,4881.85,-1752.5,-371.056,-27.8632,24.5306,-13.2597,2471.9,4574.16,-2292.44,-15.4115,16.0822,16.5551
230,0,5020.32,-1837.39,-424.873,-28.886,21.0581,-14.7994,2679.91,4460.62,-2315.15,-14.9705,15.7781,16.8438
230,1,5354.04,-1905.69,-440.533,-29.633,19.3764,-16.0957,2729.42,4438.82,-2308.04,-14.7714,15.5795,16.9969
231,0,5657.06,-2131.59,-358.106,-30.2734,19.5571,-16.6763,2889.46,4483.06,-2378.48,-14.2085,15.3662,17.1035
231,1,5780.69,-2392.61,-201.384,-30.4268,21.7944,-16.7227,2977.12,4528.56,-2375.11,-14.07,14.9398,17.2254
232,0,5773.67,-2427.78,-75.5904,-28.784,24.6905,-16.6161,3271.08,4650.5,-2412.06,-13.9485,15.1365,16.891
232,1,5765.24,-2400.22,5.87265,-26.6345,25.5181,-16.4028,3437.92,4695.01,-2399.05,-14.0394,15.1983,16.677
233,0,5783.16,-2358.36,138.623,-25.2761,24.0428,-16.5697,3691.38,4898.12,-2421.67,-14.131,16.0044,16.4638
233,1,5928.95,-2428.74,320.522,-24.1329,21.483,-16.9202,3793.56,5019.33,-2432.51,-14.4202,16.7369,16.1286
234,0,6108.53,-2481.54,558.648,-22.6093,18.374,-17.3317,4117.37,5385.03,-2432.51,-14.5122,17.8942,15.6715
234,1,6368.13,-2507.89,859.022,-20.8261,14.6859,-17.6672,4259.21,5591.47,-2479.1,-14.5578,18.3686,15.3206
235,0,6705.6,-2485.24,1117.72,-19.5901,10.8901,-17.9721,4557.96,6026.55,-2537.76,-14.9839,19.6012,14.5594
235,1,7192.54,-2457.69,1335.63,-19.2836,8.79813,-18.3682,4708.08,6216.43,-2509.21,-15.2132,20.4564,14.238
236,0,7767.06,-2422.99,1531.99,-19.679,9.28172,-18.2931,4984.19,6528.37,-2473.26,-15.5634,21.8419,13.2033
236,1,8348.87,-2449.19,1741.44,-20.3191,10.5315,-18.0492,5074.5,6770.5,-2494.7,-15.6707,22.3474,12.8202
237,0,8770.58,-2461.24,1971.26,-20.8529,14.4133,-17.9878,5344.49,7166.31,-2543.76,-15.7164,23.6102,12.2573
237,1,8924.26,-2464.82,2080.46,-20.7931,18.8043,-18.0791,5524.43,7383.51,-2585.68,-15.8686,24.8002,11.7537
238,0,9145.43,-2458.86,2197.67,-20.5492,20.3801,-18.6574,5830.5,7901.05,-2591.73,-16.371,26.7039,11.2813
238,1,9571.27,-2402.69,2170.47,-20.1227,20.5944,-19.6173,5959.09,8103.09,-2579.78,-16.2506,27.3017,11.0216
239,0,10114.6,-2370.29,1985.14,-20.3651,21.0205,-20.882,6146.74,8628.83,-2633.5,-16.1585,28.3211,10.0629
239,1,10615.1,-2333.22,1675.28,-21.1267,21.5236,-22.1779,6238.03,8854.84,-2656.36,-16.2042,28.9324,9.71047
240,0,11126.2,-2376.13,1349.64,-22.528,21.9202,-23.7322,6234.53,9073.6,-2682.65,-16.1282,29.07,9.19313
240,1,11569.3,-2537.55,1035.98,-24.159,22.9706,-25.3329,6236.88,9198.4,-2741.26,-15.8238,28.9028,9.11567
241,0,11767.3,-2732.67,921.843,-25.6684,24.4336,-26.7357,6146.11,9149.58,-2750.95,-15.2297,27.9744,8.27926
241,1,11827.3,-2921.83,981.472,-26.3104,24.9996,-27.5752,6143.46,9126.7,-2787.97,-14.7415,27.6373,7.89654
242,0,11854.9,-3162.33,1077.24,-26.1743,24.8328,-28.1546,6135.18,9094.44,-2733.12,-13.7214,26.2529,8.77858
242,1,11846.5,-3359.98,1147.92,-24.7285,24.7561,-28.7947,6125.57,9148.11,-2753.24,-13.1408,25.5645,9.54173
243,0,11777.2,-3626.75,1242.43,-21.667,25.0299,-29.4198,6418.24,9348.98,-2696.02,-12.4099,24.7576,12.0682
243,1,11658.8,-3812.53,1372.86,-17.0505,24.5743,-29.7557,6635.28,9545.4,-2628.92,-11.8757,24.4666,13.0484
244,0,11586.8,-3803.29,1551.14,-12.0049,23.8883,-30.1822,6976.07,9781.11,-2575.05,-11.677,24.8163,14.2963
244,1,11462.5,-3712.37,1918.28,-7.71973,22.7155,-30.6243,7134.6,9887.96,-2554.63,-11.6463,25.0303,14.7864
245,0,11346.3,-3515.05,2516.47,-4.83624,19.5943,-31.0512,7186.13,9891.67,-2480.54,-11.4638,26.2475,13.6762
245,1,11337.7,-3235.03,3226.24,-3.75096,15.0077,-31.3411,7164.72,9855.8,-2420.61,-11.2655,26.8289,13.1558
246,0,11497.8,-2923.82,3835.81,-3.91702,12.5027,-31.1743,7021.27,9805.54,-2293.89,-11.9953,28.5788,10.2803
246,1,11664.3,-2571.94,4341.13,-4.11566,12.4383,-30.7781,6829.77,9756.45,-2244.59,-12.0279,29.1007,8.96418
247,0,11713.6,-2215.19,4656.32,-5.28725,14.1126,-30.0318,6504.43,9504.29,-2040.28,-13.5029,30.4088,5.28185
247,1,11616.9,-1936.11,4821.71,-7.77,16.7791,-29.6345,6322.08,9369.82,-1947.74,-14.1157,30.808,3.44646
248,0,11447,-1746.83,4808.85,-9.93597,20.01,-29.0256,6091.27,9355.34,-1709.94,-15.2873,31.888,-1.10373
248,1,11150.3,-1446.64,4488.57,-13.3932,20.808,-29.2066,6127.74,9478.39,-1622.09,-15.762,32.2105,-2.65225
249,0,11413.6,-997.943,3443.64,-21.1444,20.7014,-30.242,6230.77,10218.2,-1317.44,-17.4356,32.0126,-3.68692
249,1,12218.6,-1127.14,2123.36,-29.0279,28.3833,-30.777,6196.31,10406.5,-1123.08,-17.9422,31.6774,-3.88748
250,0,12553.8,-1641.52,1062.15,-31.8274,44.0732,-30.5342,5345.6,9362.28,-701.122,-16.7859,29.7143,-3.47638
250,1,11821.8,-2151.62,467.604,-29.7611,55.6405,-30.6094,4915.61,8891.13,-480.225,-16.0374,28.7659,-3.49057
251,0,10714.6,-2428.59,130.942,-24.8105,55.6757,-31.3553,4366.87,8497.76,62.3737,-13.0396,25.6466,0.342491
251,1,10138.9,-2265.36,-440.688,-19.3074,46.6636,-32.133,4163.59,8530.23,248.967,-11.6624,24.1778,2.42216
252,0,10403.2,-1677.02,-1443.15,-16.7859,39.9321,-32.2258,5022.41,10089.6,608.582,-10.3835,20.3279,7.52037
252,1,11112.7,-1116.51,-2533.76,-18.5473,33.7601,-31.1455,5440.56,10722.2,738.589,-9.8631,18.629,9.19198
253,0,11546.7,-968.492,-3038.95,-25.5661,30.6738,-28.9216,5826.77,11086.9,1093.42,-9.17817,14.9616,7.24496
253,1,11783.9,-1112.99,-3188.93,-30.6493,28.54,-25.874,5935.24,11170.2,1261.64,-8.41578,12.959,4.75992
254,0,11664.9,-1084.74,-2790.13,-31.5094,20.184,-23.6006,5814.57,11025.6,1676.31,-6.63444,10.0817,-0.873646
254,1,11510.3,-1126.33,-1845.21,-25.6676,3.27683,-22.4252,5781.98,10951.1,1870.94,-5.96065,9.16168,-3.24552
255,0,11889.9,-944.94,-1062.9,-11.5346,-14.5764,-21.5562,5913.41,10977.3,2314.31,-6.18846,8.59871,-8.72379
255,1,12741.6,-148.765,-1016.08,4.7915,-23.4814,-21.3871,6039.2,10967.9,2535.29,-6.14358,8.50591,-11.3093
256,0,13561.9,844.784,-1391.53,14.3788,-21.6229,-22.5434,6131.42,10935.6,2866.42,-6.96465,10.6359,-15.145
256,1,14187.1,1290.07,-1449.8,16.9953,-13.186,-23.2463,6231.94,10945.1,2986.73,-7.39301,12.8018,-17.2998
257,0,14700.8,1347.95,-1191.62,17.5299,-5.9399,-22.806,6710,11434.9,3218.53,-9.5383,18.1301,-19.128
257,1,14932.4,1166.35,-748.945,16.7549,7.30799,-21.116,6840.28,11683.5,3373.27,-10.5177,20.4407,-19.9536
258,0,14932.7,1070.28,-476.761,14.5467,21.3964,-18.8756,6689.7,11669.4,3568.21,-11.5681,25.782,-22.1603
258,1,14809.6,778.7,-257.729,9.56699,32.3927,-16.4672,6594.93,11612,3689.33,-11.6621,28.0933,-23.2766
259,0,14639.6,-49.9395,-136.604,1.90322,44.2489,-13.8,6102.62,11457.7,3825.69,-10.6726,30.3007,-26.1072
259,1,14243.8,-1167.75,-79.0836,-2.92111,55.3188,-11.0105,5852.81,11303.2,3864.24,-10.0008,30.8387,-27.3317
260,0,13563.1,-2012.37,-113.627,-3.70456,64.1944,-7.97743,4693.8,10342.5,3989.67,-5.90769,27.8263,-30.7705
260,1,12288.1,-2380.65,-211.715,-3.65854,69.7945,-4.86767,4106.49,9884.77,4056.92,-3.75172,26.2816,-32.2097
261,0,10529,-2474.34,-196.414,-3.52163,62.9893,-2.53373,2886.22,8684.98,4054.6,3.55239,19.2521,-34.7815
261,1,9185.99,-2151.89,-167.624,-3.52125,43.7845,-1.46456,2399.2,8154.95,4033.07,7.23809,15.6734,-35.6554
262,0,8451.26,-1674.31,9.21734,-4.58622,30.6561,-1.14358,1892.41,7278.91,3761.85,15.2586,7.12064,-34.7124
262,1,7944.71,-1175.14,274.899,-6.62757,16.3356,-0.732471,1643.81,6832.21,3547.27,18.672,3.2037,-34.1621
263,0,7372.69,-607.851,455.863,-9.11185,4.11787,-0.290302,1466.76,6542.64,3053.55,24.4854,-2.53458,-31.0277
263,1,7034.55,-298.415,532.628,-12.6768,-5.86908,0.227801,1506.96,6460.76,2776.34,27.0717,-5.33327,-29.1786
264,0,6785.56,-90.1045,664.144,-14.7082,-13.906,0.867854,1705.52,6488.23,2214.52,30.5573,-9.73237,-25.7079
264,1,6737.25,183.889,714.647,-13.2355,-17.5725,1.6755,1819.47,6497.86,1896.51,31.9202,-11.5996,-23.9952
265,0,6813.75,602.62,546.237,-12.12,-15.6607,2.11843,2293.89,6634.05,1310.75,31.9666,-12.681,-20.4947
265,1,6845.01,782.769,305.643,-13.366,-7.33271,2.56021,2486.3,6640.4,1044.05,31.86,-13.0791,-18.7057
266,0,6603.72,693.353,201.203,-14.1609,3.44312,3.73257,2632.15,6519.64,631.673,30.6884,-12.5621,-15.5549
266,1,6249.44,512.659,100.736,-13.2187,11.6046,5.04373,2648.05,6487.08,466.944,29.8485,-12.4693,-13.9343
267,0,5964.36,425.053,-64.3591,-11.8162,16.0616,5.73095,2735.17,6291.18,71.4296,26.9113,-11.7242,-10.1142
267,1,5874.23,408.219,-253.486,-11.3265,17.4989,5.99057,2767.7,6242.84,-78.9638,25.6562,-11.3265,-8.40044
268,0,5933.89,374.76,-394.849,-10.7329,18.0937,5.99095,2893.13,6105.51,-311.972,22.3999,-10.6872,-4.90025
268,1,5981.86,342.416,-505.012,-10.0468,18.7794,5.51925,2963.96,6028.66,-427.283,20.7938,-10.3053,-3.46103
269,0,6079.89,270.679,-599.605,-9.28478,18.3245,4.63567,3088.28,5954.51,-569.551,17.5978,-9.69627,-1.25438
269,1,6213.93,209.575,-636.828,-7.89882,16.3299,3.79697,3137.58,5914.91,-591.413,15.9921,-9.60347,-0.0467796
270,0,6363.55,217.827,-548.467,-6.40473,13.6781,3.04992,3306.05,5808.54,-659.445,12.1418,-9.3147,1.39977
270,1,6495.27,164.13,-391.714,-3.11585,11.208,2.50076,3393.71,5807.07,-699.077,10.7777,-9.11605,1.92054
271,0,6612.61,315.676,-374.64,-0.765053,9.2863,2.01296,3583.75,5721.15,-664.473,7.53716,-8.53773,1.54049
271,1,6620.01,420.085,-286.309,-0.533061,7.51801,1.61643,3740.74,5667.12,-640.471,6.05269,-8.21675,1.49371
272,0,6594.87,424.993,-56.6751,-0.837939,5.29335,1.47875,3801.93,5581.05,-636.858,3.90663,-7.44055,0.246569
272,1,6585.26,467.969,160.097,-0.868998,3.73676,1.50905,3840.24,5547.38,-679.864,2.86662,-7.14949,-0.684928
273,0,6584.05,548.138,393.465,-1.4013,2.09118,1.70694,4003.98,5498.38,-593.971,1.83117,-6.40397,-2.31403
273,1,6594.81,566.236,530.159,-1.99609,0.231611,1.85957,4034.27,5500.64,-553.076,1.34184,-6.29545,-2.98743
274,0,6662.93,593.702,652.218,-3.13815,-1.613,1.89024,4227.74,5710.94,-529.163,0.73285,-5.33746,-5.51315
274,1,6799.29,531.662,835.262,-4.66216,-2.71208,1.93588,4352.54,5779.6,-443.092,0.411871,-4.63491,-6.98038
275,0,6902.35,374.969,1093.72,-5.60862,-3.42883,1.81431,4482.91,5905.04,-341.331,0.68531,-4.0102,-10.481
275,1,6999.29,226.469,1375.03,-6.75105,-5.0123,1.58575,4488,5990.2,-298.115,0.792683,-3.79583,-12.2243
276,0,7253.95,98.3566,1675.46,-7.98591,-6.62872,1.70694,4659.93,6219.69,-206.081,1.24905,-3.18721,-14.8121
276,1,7660.76,6.11255,1938.91,-9.57051,-6.78402,2.45284,4696.28,6334.97,-170.003,1.67626,-2.66835,-16.0205
277,0,8119.21,-179.221,2159.24,-10.5933,-3.46712,3.6413,4773.86,6664.8,-70.8307,2.45284,-1.32879,-18.0753
277,1,8486.92,-388.736,2208.66,-10.7471,-0.415676,4.32851,4792.02,6777.97,-34.7234,2.59165,-1.09718,-18.9933
278,0,8814.94,-644.812,2071.27,-10.321,5.21829,5.50086,4852.91,6988.24,30.9902,3.61062,-0.200168,-19.7699
278,1,8882.52,-781.565,1957.4,-9.08765,12.9599,6.49257,4903.27,7133.37,52.6724,4.23724,0.213225,-20.0456
279,0,8809.61,-894.048,1898.68,-7.80678,17.7382,7.43751,4877.06,7402.36,138.684,5.47019,0.426449,-19.2852
279,1,8793.89,-1135.61,1825.71,-5.35508,16.6962,8.09366,4897.27,7527.28,192.681,5.99057,0.715988,-18.6137
280,0,8964.74,-1321.36,1823.15,-3.4476,12.842,8.41426,5055.05,7900.12,236.951,7.13187,0.199407,-15.8287
280,1,9379.74,-1517.6,1908.01,-3.09442,9.44083,8.42998,5140.28,8092.25,313.506,7.77382,0.0456366,-14.6652
281,0,9854.99,-1868.05,2085.04,-1.7863,7.51762,8.41464,5317.18,8471.14,446.287,8.59604,-0.0302976,-11.5155
281,1,10300.4,-2014.62,2060.37,2.40074,6.31269,8.96228,5397.68,8619.07,530.219,8.79583,-0.289159,-10.2596
282,0,10574.8,-1872.59,1863.05,5.75782,4.98694,9.69398,5707.15,8929.75,660.561,9.14558,0.136149,-8.26619
282,1,10802.3,-1690.58,1676.21,7.83252,1.43958,10.4257,5794,9084.69,691.939,9.31393,0.624335,-7.75887
283,0,11154,-1571.95,1467.99,9.29669,-1.14016,10.9749,6090.22,9410.96,771.958,9.46618,1.82699,-6.7096
283,1,11521.5,-1492.9,1423.33,11.414,-3.65436,12.3754,6205.74,9532.48,824.75,9.55784,2.46894,-6.25019
284,0,11694.3,-1442.57,1516.54,14.2028,-5.47019,14.3109,6468.6,9868.21,872.604,10.0295,4.75154,-6.67588
284,1,11980,-1420.98,1754.52,16.3081,-7.31404,16.2318,6598.33,10004.1,925.277,10.2742,5.8529,-6.738
285,0,12418,-1438.87,2071.67,17.7267,-7.94179,18.0308,6670.13,10317.2,949.279,11.3089,8.16618,-8.48715
285,1,12790.5,-1456.85,2412.82,19.6917,-6.16234,19.6622,6707.32,10426.7,931.389,11.9658,8.94808,-9.40483
286,0,12997.9,-1438.96,2750.42,21.5217,-2.90185,21.5214,6530.57,10586.8,924.162,13.7161,10.4694,-12.8437
286,1,13038.8,-1281.21,2988.84,22.7727,1.4562,23.5639,6411.79,10668.5,924.162,14.6334,11.2494,-14.648
287,0,12856,-958.248,3123.06,23.0488,5.99907,25.3632,5797.6,10538.4,827.398,17.2205,11.8891,-18.3464
287,1,12339.5,-587.161,3319.21,22.0448,7.59052,27.2074,5565.39,10426.9,787.707,18.4595,12.3926,-20.1968
288,0,11756.4,-271.007,3408.08,21.0228,6.55735,28.3219,4938.13,10351.4,695.702,20.9707,12.7738,-21.659
288,1,11464.9,-242.915,3408.17,18.0545,1.68614,29.6775,4702.27,10372.8,651.253,22.3616,13.1397,-21.7994
289,0,11508.7,-344.586,3365.13,13.0268,-4.06129,31.2932,4864.66,11289.2,298.802,23.8845,14.6921,-18.9691
289,1,12009.5,-506.098,3050.84,8.26923,-5.39653,32.9395,4936.81,11696.7,131.786,24.238,15.4111,-17.3186
290,0,12776.6,-565.002,2300.98,4.35031,0.749471,34.7228,4654.92,12014.7,-204.041,23.9791,17.4502,-13.0115
290,1,13350.5,-487.392,1380.52,0.950251,13.1644,35.8675,4436.71,12016.7,-336.333,24.085,18.3379,-10.9162
291,0,13435.1,-370.091,506.504,-2.20552,27.0515,35.9607,3553.55,11179,-513.206,23.4162,18.6428,-6.24397
291,1,13153.1,-382.983,-406.757,-4.49382,38.8547,35.2301,3130.71,10850.6,-594.907,23.2164,18.9477,-3.15881
292,0,12636.3,-458.363,-1465.93,-6.59729,47.5791,33.6309,2872.28,11082.2,-997.562,22.5928,18.9331,3.03701
292,1,12037.8,-686.703,-2517.09,-8.95962,50.9879,31.8016,2819.14,11256.2,-1144.4,22.3781,18.8112,5.76049
293,0,11580.2,-1075.53,-3508.38,-10.2577,50.1856,30.8395,2767.82,11777.3,-1511.19,20.6895,17.2288,8.45534
293,1,11237.7,-1458.69,-4417.12,-9.89453,44.4622,30.0775,2712.71,11996,-1679.44,20.4871,16.3879,9.17702
294,0,10974.2,-1687.63,-4958.93,-8.46293,33.9663,29.8781,2392.45,12057.1,-1974.64,19.8339,13.5423,5.17594
294,1,10894.9,-1891.09,-4983.7,-9.14407,20.6314,29.8781,2210.01,12028.6,-2111.6,19.8014,12.0287,3.06564
295,0,10931.8,-2546.18,-4518.77,-10.7444,8.32625,29.7411,2004.32,12207.6,-2459.35,19.8324,8.81724,-1.02861
295,1,11175.7,-3343.46,-3966.84,-11.4324,-1.43403,30.1971,1926.17,12337.2,-2557.04,19.7714,7.16597,-2.95599
296,0,11700.7,-4263.77,-3278.81,-9.37946,-7.87246,30.7766,1973.91,12570.3,-2749.33,19.6192,3.80228,-6.27404
296,1,12410.4,-4996.88,-2516.31,-3.54722,-9.90721,30.7777,2052.9,12634.2,-2898.01,19.847,2.47008,-7.81908
297,0,13221.9,-5183.4,-1953.24,3.69279,-6.92738,30.0015,2231.07,12674.8,-3047.57,20.3041,1.23713,-9.95019
297,1,13994.1,-4878.83,-1764.66,8.15008,1.44823,28.5239,2395.17,12721.5,-3142.28,20.6094,0.579838,-10.6098
298,0,14606.1,-4329.64,-1828.99,9.61767,14.262,26.5581,2665.46,12965.3,-3271.45,20.8533,1.62873,-10.8836
298,1,14920.3,-3696.46,-2004.84,10.0453,22.9921,24.9413,2801.1,13018.5,-3333.87,20.9146,2.10347,-10.8843
299,0,15003.2,-2913.83,-2147.41,10.6696,34.1573,22.8846,3121.41,13196.5,-3507.16,21.2341,4.68981,-10.0778
299,1,14961.5,-2404.4,-2225.31,9.84965,46.7639,20.3091,3294.27,13305.7,-3587.66,21.0677,6.00515,-9.68017
300,0,14686.6,-1876.74,-2190.8,6.08943,58.1993,17.3067,3278.94,13256.8,-3678.52,20.1085,9.03366,-8.5845
300,1,14001.3,-1453.86,-2001.91,1.65317,64.3071,14.5164,3219.1,13152.7,-3663.22,19.8171,10.7302,-8.04916
301,0,13216,-1098.29,-1743.4,-2.18943,60.635,12.1073,2984.83,12626.9,-3627.26,18.6305,13.44,-7.4858
301,1,12697.1,-924.341,-1604.26,-5.71106,54.9627,10.4747,2879.09,12369.8,-3602.11,17.9579,14.9072,-6.95198
302,0,11900.6,-1160.64,-1307.8,-6.72228,52.6392,9.25485,2538.54,11551.3,-3463.49,15.584,18.3622,-4.72997
302,1,10716,-1532.9,-868.621,-4.39518,48.1185,7.95941,2366.8,11218.2,-3386.67,14.5433,19.725,-3.75057
303,0,9553.42,-1810.83,-457.903,-0.722438,38.3101,5.97903,2188.63,10421.2,-3132.12,11.6674,23.1029,-1.10287
303,1,8836.7,-2062.21,-169.186,1.38482,30.559,4.651,2124.88,10039.1,-3064.55,10.0472,24.5724,0.16683
304,0,8529.68,-2305.24,41.5933,3.68504,22.1026,3.06678,2053.17,9295.75,-2857.92,7.30705,27.479,1.85653
304,1,8357.21,-2386.97,173.408,5.69838,17.9003,1.43539,2041.03,8884.05,-2758.18,6.00705,28.9167,2.37805
305,0,7976.99,-2376.28,333.716,6.1129,18.3514,0.0325731,1829.62,8011.49,-2526.34,3.57181,32.0518,3.74716
305,1,7364.4,-2377.43,424.874,5.09355,20.1799,-0.852521,1732.26,7677.13,-2430.16,2.48542,33.2313,4.4355
306,0,6777.66,-2508.86,343.769,4.57355,21.766,-1.72114,1573.3,6947.05,-2207.9,0.963305,35.1182,5.97258
306,1,6296.26,-2570.14,182.227,5.42494,23.7314,-2.04249,1511.96,6604.62,-2124.88,0.25962,35.9143,6.55469
307,0,5841.36,-2443.56,2.67699,6.18808,26.6871,-2.02753,1422.33,6096.62,-2017.33,-0.410354,36.1582,8.68467
307,1,5404.38,-2262.8,-150.611,6.34147,28.6866,-2.14911,1375.51,5819.35,-1932.22,-0.472846,36.3564,10.1661
308,0,5091.69,-2113.1,-319.351,6.3871,29.9068,-2.56022,1362.32,5277.86,-1800.68,-0.426829,36.083,12.663
308,1,4861.76,-1967.07,-485.77,6.31117,30.4568,-2.81984,1374.24,5127.15,-1751.38,-0.289919,35.5193,13.7797
309,0,4721.54,-1836.55,-630.656,6.00667,31.0964,-3.23095,1526,4921.72,-1651,0.6232,34.1793,16.5494
309,1,4703.39,-1783.72,-823.278,5.13881,31.3261,-3.62748,1582.55,4875.74,-1586.23,0.960272,33.6436,17.8954
310,0,4728.5,-1719.16,-965.874,5.0606,31.8435,-3.76515,1785.66,4769.49,-1557.47,1.75144,31.7265,20.2394
310,1,4714.23,-1631.79,-1110.67,5.12195,32.6968,-3.87176,1817.27,4702.27,-1540.69,2.0122,30.6868,21.2951
311,0,4617.4,-1418.96,-1084.71,4.93941,32.3336,-4.13063,2009.51,4703.39,-1508.41,2.69675,28.9059,22.0414
311,1,4633.88,-928.638,-1134.7,3.64585,29.6698,-5.25697,2114.01,4685.5,-1498.77,3.0181,28.1255,22.6668
312,0,4800.06,-889.23,-1208.97,-1.51454,25.9207,-7.16142,2323.16,4839.54,-1566.86,3.6877,25.7669,22.8505
312,1,5072.85,-1261.05,-1143.4,-5.2547,21.7444,-7.95675,2410.92,4915.25,-1582.58,3.99372,24.8631,22.7746
313,0,5473.67,-1560.63,-979.511,-6.79708,19.8036,-8.09442,2636.76,5080.17,-1630.35,4.02439,22.946,21.9224
313,1,5766.06,-1798.88,-740.21,-8.12283,20.3337,-7.7903,2821.34,5237.1,-1672.3,3.88748,21.9063,21.3269
314,0,5970.84,-2015.59,-538.978,-8.88635,20.7467,-7.68293,3019.95,5555.16,-1763.16,3.61328,20.7187,19.2571
314,1,6205.38,-2237.03,-357.019,-9.16131,20.245,-7.86548,3170.92,5711.24,-1747.86,3.21713,20.092,18.2781
315,0,6397.04,-2350.99,-257.488,-8.5684,18.9201,-8.29193,3375.47,6065.02,-1855.25,2.01447,18.7222,15.25
315,1,6673.35,-2424.02,-85.3138,-7.48656,16.6655,-9.00792,3497.79,6177.04,-1878.29,1.64634,17.9732,13.9032
316,0,6988.18,-2513.76,131.339,-6.9213,14.6218,-9.8006,3741.68,6424.33,-1900.94,0.459779,16.6793,10.2208
316,1,7300.63,-2570.11,348.022,-6.64672,12.686,-10.4107,3802.02,6586.29,-1982.25,-0.121573,16.2349,8.56802
317,0,7622.63,-2631.12,563.5,-6.40282,11.0542,-10.8226,3919.06,6752.56,-2085.19,-0.456749,15.3981,5.72205
317,1,8002,-2637.24,778.978,-6.25019,10.2144,-11.3254,3949.26,6795.95,-2057.93,-0.503144,14.985,4.08688
318,0,8406.61,-2626.45,969.369,-6.31079,11.2932,-11.7372,3913.39,7024.11,-2136.62,-0.350894,13.9807,0.646869
318,1,8763.45,-2624.05,1151.33,-6.84347,13.9892,-12.24,3898.96,7126.29,-2197.82,-0.259241,13.2478,-0.928837
319,0,9074.75,-2645.55,1390.63,-7.19475,16.0796,-12.4693,3933.6,7360.5,-2268.38,-0.106991,11.4668,-4.06397
319,1,9304.75,-2620.52,1659.96,-6.84537,19.9015,-12.5456,3995.82,7468.65,-2335.45,0.212847,11.1428,-5.3348
320,0,9374.46,-2577.43,1854.05,-5.88585,23.8661,-12.6523,4113.03,7823.54,-2376.19,0.0766927,10.4437,-7.66305
320,1,9344.64,-2523.58,2071.82,-5.2903,27.1446,-12.3635,4121.67,7982.18,-2381.04,-0.0912742,10.2742,-8.64282
321,0,9289.59,-2487.62,2324.37,-4.4071,29.296,-11.9366,4335.44,8494.79,-2422.84,-1.49106,11.0807,-10.4994
321,1,9242.88,-2380.04,2493.35,-3.00542,30.0756,-11.4642,4420.87,8744.65,-2440.88,-2.08813,11.3871,-11.3258
322,0,9242.79,-2228.05,2556.95,-2.62195,29.5897,-11.524,4560.67,9206,-2506.6,-5.00929,14.3689,-12.087
322,1,9371.84,-2066.45,2527.16,-2.89578,29.2533,-11.4485,4656.62,9369.67,-2478.1,-6.34071,16.0961,-12.2258
323,0,9578.86,-1953.82,2431.48,-4.0831,30.1201,-11.4024,4723.66,9687.49,-2396.73,-8.92782,19.2622,-11.328
323,1,9784.79,-1893.89,2303.43,-5.86597,31.157,-11.6763,4683.18,9792.29,-2382.22,-10.6688,21.6587,-10.6715
324,0,10025.3,-1903.35,2061.84,-7.16294,31.8588,-12.0421,4520.55,9717.02,-2309.36,-12.4816,24.416,-7.90183
324,1,10365.1,-1967.91,1776.94,-10.086,33.9746,-12.5449,4440.11,9688.14,-2248.23,-12.714,25.4111,-6.37328
325,0,10622.7,-2119.79,1439.46,-13.7138,37.4637,-13.1393,4382.68,9626.01,-2150.17,-12.3938,26.6287,-1.36664
325,1,10742.6,-2261.12,1271.48,-17.2355,40.8334,-13.7947,4381.36,9537.44,-2078.26,-12.3171,26.9209,1.29356
326,0,10760.7,-2487.17,1126.72,-19.7983,42.8786,-14.3742,4361.09,9467.97,-2020.8,-10.4916,26.799,6.11879
326,1,10659.2,-2838.93,1083.38,-21.3699,42.243,-14.9686,4384.91,9398.55,-1974.09,-9.28477,26.175,9.40181
327,0,10543,-3257.84,1150.27,-21.9812,39.2433,-15.5783,4460.26,9391.23,-1934.57,-7.25988,24.9716,13.7879
327,1,10386.3,-3710.3,1248.42,-20.7953,34.7483,-15.8686,4542.87,9380.51,-1881.93,-6.14433,24.5429,15.2435
328,0,10267.7,-4134.15,1427.82,-17.3994,29.3836,-15.7321,4667.28,9390.03,-1842.39,-4.05885,23.0062,18.3169
328,1,10220.9,-4341.67,1805.75,-12.0669,23.4697,-15.3056,4669.96,9412.77,-1844.71,-3.04954,22.4087,19.4662
329,0,10235.2,-4211.74,2320.34,-6.31986,18.2546,-14.9547,4752.3,9368.62,-1783.81,-1.83154,21.374,19.9686
329,1,10310.5,-3866.04,2868.6,-3.00692,15.6431,-14.8324,4794.37,9348.17,-1794.39,-1.46342,21.1279,20.2589
330,0,10390.7,-3417.25,3333.25,0.314548,13.8595,-15.0909,4765.73,9354.13,-1755.05,-1.50905,20.474,19.8941
330,1,10417.2,-3180.94,3596.97,2.77118,14.0079,-15.2742,4747.72,9352.96,-1723.85,-1.61567,20.2439,19.6648
331,0,10369.4,-2818.64,3856.63,3.88597,15.759,-15.3049,4795.48,9297.99,-1633.02,-2.37654,19.6963,18.4019
331,1,10255.8,-2298.09,4026.84,2.99007,17.2845,-15.1223,4841.02,9344.44,-1553.94,-2.8045,19.786,17.9878
332,0,10459.8,-1794.01,3899.29,-1.21158,19.3105,-14.8784,5431.24,10057.8,-1522.74,-4.73698,19.7411,17.9878
332,1,11073.3,-1420.28,3368.43,-7.88519,24.9438,-14.2238,5812.74,10505.3,-1492.84,-5.77659,19.832,17.9878
333,0,11858.4,-1332.38,2573.88,-14.7609,36.9147,-12.9747,6162.08,10738.9,-1355.39,-7.78576,19.3304,17.4402
333,1,12255.5,-1564.13,1844.6,-20.3882,52.4141,-11.0247,6265.61,10732.1,-1265.43,-8.59719,18.8725,17.1192
334,0,12041,-2079.66,1448.95,-21.0684,63.0808,-9.16433,5891.71,9959.04,-984.566,-8.15653,18.0959,17.1645
334,1,11491.9,-2563.49,1152.07,-18.8,65.5331,-8.53697,5779.57,9677.42,-859.593,-7.94217,17.6377,17.5602
335,0,11113.2,-2863.08,500.385,-11.4011,60.8179,-8.88635,5927.75,9760.97,-596.676,-7.10536,17.1046,21.4252
335,1,11044.4,-2943.63,-59.0984,0.346205,52.0879,-9.48077,6044.02,9856.79,-512.359,-6.78363,16.8143,23.4131
336,0,10957.2,-2741.79,-991.917,12.9379,40.7502,-8.99523,6335.7,10179.5,-275.823,-6.22065,16.7683,25.4384
336,1,11027.5,-2539.33,-1916.41,20.8438,27.293,-8.27848,6390.2,10259.2,-149.734,-5.94531,16.7227,26.3561
337,0,11197.4,-2333.48,-2250.31,23.3974,15.1094,-8.20103,5944.5,9836.24,242.233,-4.7737,16.114,24.6836
337,1,11253.9,-1920.89,-1869.54,21.7571,3.8435,-8.64245,5723.5,9700.1,350.788,-4.2077,15.9603,23.3095
338,0,11390.1,-1273.61,-1234.04,18.4506,-5.76337,-9.51069,5278.88,9694.14,721.073,-3.5987,14.7434,18.5307
338,1,11588.8,-605.552,-709.425,14.1382,-10.8783,-10.5776,5148.71,9673.81,869.051,-3.55155,14.1011,16.0538
339,0,11784,21.7887,-588.974,9.83883,-11.1447,-11.4469,5180.99,10162.4,1051.89,-4.51031,13.0204,10.4834
339,1,11889.5,657.412,-983.202,7.36573,-9.81934,-11.7833,5204.97,10335.8,1175.42,-5.13654,12.546,7.98932
340,0,11958.9,1127.03,-1352.23,3.2849,-7.03244,-11.9662,5234.87,10603.4,1397.8,-6.7043,11.9067,1.03521
340,1,11997.3,1366.81,-1360.05,-3.35767,-3.89201,-11.3276,5225.38,10699.7,1476,-7.24076,11.2509,-2.1779
341,0,11983,1358.82,-1178.27,-12.1654,0.449957,-10.4586,5165.6,10813.2,1655.23,-8.53395,10.9607,-6.97246
341,1,11979.4,1057.63,-827.812,-20.5363,5.34297,-9.7419,5133.2,10803.9,1681.99,-9.05469,10.8234,-8.7038
342,0,12063,346.039,-430.374,-25.0254,9.00415,-9.52754,5063.87,10730.9,1735.66,-9.58738,10.4276,-10.5603
342,1,12309.3,-413.056,-108.198,-26.949,13.2399,-9.78602,4977.68,10726,1782.43,-9.66483,10.1223,-11.3411
343,0,12562,-974.859,-19.1833,-26.3587,19.8667,-10.4257,4654.95,10347.3,1826.7,-9.31469,9.01132,-11.3112
343,1,12550.6,-1420.3,-103.963,-26.5842,30.8804,-10.4728,4474.93,10161.1,1867.42,-9.11605,8.84109,-11.0523
344,0,12139.4,-2011.33,-119.74,-27.4529,40.3983,-9.74227,4330.16,9905.3,1851.97,-7.71625,7.39641,-10.2911
344,1,11568.5,-2607.59,-61.1633,-27.044,43.5194,-8.782,4268.91,9840.14,1847.12,-7.07355,6.79897,-10.061
345,0,11087,-3143.98,121.764,-25.3232,42.7462,-8.44531,4179.25,9615.59,1816.07,-5.36925,5.17099,-9.65024
345,1,10760,-3465.21,101.909,-19.2037,36.8559,-8.32336,4069.12,9495.49,1805.23,-4.49761,4.49724,-9.60347
346,0,10677,-3539.8,37.1916,-10.9278,27.1504,-8.33832,3819.21,9058.14,1776.56,-1.97146,3.35592,-10.5469
346,1,10558.7,-3471.74,2.43864,-1.66106,19.7659,-8.12547,3766.03,8815.66,1749,-0.839075,2.85089,-11.2188
347,0,10093.6,-2996.08,-90.8019,6.34511,15.6607,-7.4555,3328.86,8126.08,1664.13,2.96492,1.75522,-12.9844
347,1,9308.78,-2328.23,-44.4483,10.97,11.805,-7.07355,3061.23,7830.39,1623.3,4.66369,0.991703,-14.0386
348,0,8448.08,-1699.63,170.793,13.305,6.09203,-6.55582,2724.02,7332.02,1482.29,8.74189,-0.150364,-15.3483
348,1,7772.53,-1202.6,410.243,14.0543,-1.46631,-5.76352,2538.03,7087.01,1386.35,10.7455,-0.670355,-15.8686
349,0,7406.9,-814.591,548.109,13.051,-7.67426,-4.5904,2365.77,6803.65,1143.7,13.9877,-1.59882,-15.9146
349,1,7235.48,-576.109,639.119,10.5836,-8.99409,-2.99045,2371.35,6667.96,1042.73,15.502,-2.20971,-15.6865
350,0,7036.9,-412.04,657.216,8.82839,-7.82248,-1.83078,2461.09,6626,769.087,18.2264,-2.45399,-14.1037
350,1,6924.15,-298.234,580.749,6.46757,-5.33971,-0.0336937,2528.19,6649.83,619.027,19.4505,-2.45436,-13.415
351,0,6883.37,-255.019,498.112,4.74302,-1.85026,1.9482,2660.91,6678.59,405.02,20.7598,-1.52628,-11.1631
351,1,6765.05,-180.903,374.907,3.8426,2.18871,3.44305,2768.75,6623.69,293.386,21.0216,-1.21951,-10.2899
352,0,6591.52,-183.105,279.05,3.43035,4.9203,4.51069,2859.73,6517.19,37.6061,21.432,0.103974,-8.50968
352,1,6420.31,-209.456,244.238,3.67312,5.25962,4.84737,2882.62,6452.45,-46.6795,21.631,0.776968,-7.74428
353,0,6381.74,-233.398,210.749,4.51069,4.08763,4.6955,2990.14,6383.06,-180.488,21.0074,2.49661,-5.40106
353,1,6454.62,-192.829,122.267,5.80576,2.71549,4.17777,3044.19,6345.87,-210.719,20.8383,3.14006,-4.17777
354,0,6561.14,-216.594,56.3452,7.02565,1.73913,3.4311,3154.15,6289.67,-320.586,19.5302,4.81368,-1.42306
354,1,6692.78,-194.004,-35.7502,8.22983,0.931104,2.54715,3228.5,6265.64,-427.224,18.9485,5.59404,-0.0467685
355,0,6878.23,-128.201,-62.2492,8.90169,0.412245,2.04325,3356.43,6309.82,-425.023,17.7159,6.53785,2.35819
355,1,7043.5,-42.0392,-19.2424,9.66332,0.0766908,1.3123,3427.23,6354.15,-445.262,17.3171,7.05746,3.52049
356,0,7261.24,-33.4892,63.3057,9.74114,-0.228187,0.686824,3660.28,6464.14,-505.073,16.1761,8.13817,4.98203
356,1,7443.32,-77.7301,82.6074,9.55821,-0.533066,-0.135781,3813.8,6555.21,-518.352,15.7927,8.42998,5.51811
357,0,7770.99,-108.899,63.4834,9.83166,-0.290294,-0.594041,3954.98,6800.26,-563.738,14.3779,8.87101,5.50315
357,1,8143.31,-93.4183,71.7964,9.52829,1.73385,-0.762007,4058.04,6926.32,-550.726,13.5373,9.07003,5.30526
358,0,8300.56,-32.4327,248.642,8.1124,3.83845,-0.518858,4269.67,7108.04,-602.016,12.5019,9.22228,4.10297
358,1,8415.43,-10.7813,439.062,6.31381,4.238,0.212095,4337.09,7177.79,-579.486,11.5562,9.31393,3.17186
359,0,8629.52,-48.9997,526.636,4.89527,4.52678,1.02012,4478.07,7308.04,-496.937,10.3374,9.46619,0.614656
359,1,8737.54,-173.35,630.687,4.16244,4.90797,1.63025,4532.21,7454.13,-463.3,9.68054,9.69475,-0.548027
360,0,8814.13,-393.469,811.324,3.52238,4.17853,2.49849,4749.65,7793.69,-362.921,7.51949,10.1212,-3.95663
360,1,9028.14,-659.181,987.349,3.30802,3.26352,3.06337,4836.26,7996.43,-319.648,6.64672,10.3352,-5.38044
361,0,9301.04,-910.617,1061.76,3.7947,2.63804,3.76402,4945.01,8195.01,-169.094,4.98805,10.8222,-8.54552
361,1,9417.5,-1072.4,1137.11,4.92181,3.45839,4.87617,5044.45,8236.08,-137.63,4.1774,11.3407,-10.6228
362,0,9497.67,-1238.73,1309.32,6.15666,4.41941,6.05004,4926.36,8270.69,21.2076,3.08134,11.8285,-14.0333
362,1,9526.51,-1415.9,1567.77,6.78288,4.31469,7.02603,4843.54,8269.6,112.454,2.78954,11.6774,-15.4717
363,0,9575.51,-1585.9,1752.32,7.25535,4.38987,8.03194,4652.3,8250.45,271.439,2.85052,12.0417,-17.2071
363,1,9691.52,-1749.91,1862.54,8.24517,5.54652,9.20544,4581.33,8320.89,349.494,2.72894,12.0126,-18.0177
364,0,9764.67,-1805.2,1918.89,9.67753,7.10121,10.3337,4455.86,8296.01,459.48,4.05205,11.7687,-18.7031
364,1,9810.17,-1817.18,1965.57,10.9281,8.5953,11.34,4393.4,8221.81,532.629,4.46656,11.9811,-18.8568
365,0,9821.02,-1841.1,1995.53,11.8584,10.4695,12.3156,4239.24,8252.71,621.14,6.13981,11.7081,-18.5676
365,1,9806.68,-1876.99,1990.8,12.4383,11.6145,12.9261,4161.18,8258.82,682.274,7.02678,11.5397,-18.4756
366,0,9798.28,-1868.71,1926.26,13.3825,12.9702,14.0072,4065.53,8301.8,715.822,9.59858,11.068,-17.8367
366,1,9789.91,-1873.44,1898.62,14.3887,14.4946,15.2877,4043.79,8263.7,733.801,10.7919,10.9146,-17.3025
367,0,9737.32,-1869.89,1774.35,15.5469,15.9277,16.2031,3892.09,8181.12,744.582,13.7898,10.1844,-15.0502
367,1,9638.03,-1663.19,1586.46,17.0859,16.2349,16.7219,3782.96,8066.26,743.407,15.2125,9.98467,-13.9185
368,0,9531.48,-1300.66,1454.65,17.5456,15.4893,16.6011,3684.84,8034.94,645.437,18.1041,10.0913,-10.8597
368,1,9508.57,-961.767,1330.18,16.5113,14.1486,16.5244,3687.01,8013.44,573.493,19.3895,10.0763,-9.23913
369,0,9613.7,-798.636,1150.72,15.6565,13.0503,16.1593,3954.69,8386.11,434.806,22.0679,10.061,-4.14117
369,1,9860.08,-692.087,957.976,15.7616,13.5351,15.3977,4073.67,8567.54,331.723,22.9725,9.96971,-1.67852
370,0,10092.4,-504.312,859.622,16.1731,14.9671,14.2702,4202.78,8814.98,132.051,24.6764,10.2129,1.92911
370,1,10221.9,-260.163,889.35,16.2349,15.8222,13.507,4246.11,8856.23,46.7387,25.3352,10.168,3.45952
371,0,10232.8,18.7103,1062.7,15.4893,16.3864,12.304,4232.98,8869.27,-83.5458,26.4155,10.122,4.82978
371,1,10199.4,205.665,1255.47,13.2359,16.3418,10.9472,4213.82,8909.96,-199.761,26.7683,10.122,5.51773
372,0,10168.2,258.544,1374.12,9.914,15.8241,9.87956,4112.24,9006.81,-361.244,26.5858,9.52867,6.88761
372,1,10100.1,270.53,1573.83,6.83379,15.4426,9.40596,4108.39,9010.63,-399.846,26.4331,9.28363,7.36271
373,0,9972.07,165.422,1794.12,4.45461,15.0008,9.28363,3856.4,8941.27,-569.465,25.5353,8.9032,7.74315
373,1,9785.41,-107.251,2102.78,2.48767,14.2391,9.72467,3761.31,8888.54,-602.193,25.3808,8.59794,8.00277
374,0,9630.89,-584.562,2460.68,0.916893,13.6137,10.517,3611.96,8813.19,-704.863,24.651,8.21713,8.27697
374,1,9563.71,-1356.2,2824.6,-0.0445084,13.2474,11.325,3641.42,8852.44,-774.458,24.299,8.1554,8.49057
375,0,9868.25,-2441.49,3041.57,1.9467,13.9922,12.4371,4266.43,9711.55,-899.983,22.2603,9.26604,10.4077
375,1,10468.8,-3407.95,2800.6,9.25475,19.6992,14.1587,4600.19,10079.4,-1003.04,21.1746,9.8167,11.3561
376,0,11068.7,-3824.35,1959.99,14.795,25.5862,15.5013,5228.93,10699.7,-1099.98,18.7547,12.9358,14.2017
376,1,11443.8,-4099.63,1007.01,20.3415,34.8009,17.0705,5414.51,10912.7,-1139.61,17.8053,14.146,15.3045
377,0,11581.8,-4299.72,484.22,25.2521,43.1894,17.9564,5575.76,10716.9,-1155.18,16.7855,17.7671,18.241
377,1,11691.9,-4464.94,-128.223,30.0078,47.13,18.0641,5631.16,10670.9,-1162.38,15.8245,20.0587,20.3026
378,0,11761.4,-4584.73,-789.082,37.6088,44.5646,18.6421,6082.74,11104.6,-1267.52,15.6554,24.2148,24.6869
378,1,12029.1,-4353.19,-1576.49,46.8299,35.9454,19.6629,6270.34,11312.5,-1302.45,15.5338,26.3549,26.6755
379,0,12505.3,-3940.33,-2359.5,52.8583,26.0213,20.4867,6397.07,11516.9,-1413.55,16.0355,30.3886,28.4876
379,1,12984.2,-3640.78,-2921.36,56.5955,18.4252,21.5379,6396.19,11556.9,-1468.81,16.2652,31.9658,28.7506
380,0,13280.3,-3154.04,-3328.55,57.1196,12.5999,23.0159,5766.51,11259.3,-1689.86,19.11,33.7618,23.8666
380,1,13397.8,-2377.55,-3742.68,49.1169,8.38998,24.1448,5451.82,11100.8,-1790.8,20.4717,34.2836,21.5715
381,0,13291.7,-1866.89,-3968.15,38.7507,6.52627,24.5272,4372.77,10868.9,-2062.07,24.3064,32.3972,13.5374
381,1,12905.5,-2211.33,-3620.83,18.7706,4.53092,24.4363,3850.23,10783.5,-2167.91,26.279,31.3576,9.54551
382,0,12564,-2679.65,-3164.61,3.25165,1.90972,24.3903,2835.51,10570.8,-2482.15,31.2251,24.9215,0.551128
382,1,12151.3,-3320.85,-2230.7,-2.00806,-0.788544,24.2533,2413.56,10511.7,-2635.91,33.3069,22.029,-3.3211
383,0,11926.9,-4048.66,-1158.04,1.33319,-0.824488,23.8422,2218.56,10848.6,-2857.06,36.1226,15.9723,-8.99815
383,1,11850.2,-4670.19,-417.566,10.7152,4.31911,22.8068,2214.53,11104,-2936.47,37.286,13.3398,-11.2947
384,0,11747.3,-4852.97,-136.721,21.9945,11.8172,20.6289,2675.8,11668.3,-3101.36,37.1955,11.0561,-13.9735
384,1,11559.5,-4556.8,-106.52,31.1761,18.8463,17.9463,2921.92,11956.4,-3191.4,36.8603,10.2746,-15.0909
385,0,11409.8,-4012.39,-77.878,38.3585,23.424,16.0695,3359.43,12364.1,-3357.55,34.7146,12.6627,-15.9588
385,1,11531.4,-3201.22,-106.461,43.1187,24.801,14.8493,3542.13,12527.6,-3384.26,33.9331,13.9776,-16.0826
386,0,11963,-2376.29,-245.147,43.8269,24.939,13.9342,3629.46,12709.3,-3426,31.1642,18.5732,-14.0285
386,1,12427.6,-1912.31,-412.741,40.2054,27.2666,12.8524,3639.22,12676.3,-3467.95,29.8332,20.563,-13.1711
387,0,12440.5,-1713.28,-544.496,35.3734,33.2515,12.3784,3322.6,12165.9,-3433.37,27.2307,24.3371,-10.0977
387,1,12234.7,-1582.76,-635.535,32.3208,37.8752,12.5909,3167.63,11929.3,-3429.67,26.1743,26.3703,-8.58335
388,0,11718.2,-1458.26,-681.099,29.5167,37.6549,12.4091,2631.1,11201.5,-3361.61,23.4506,30.1148,-3.94214
388,1,11144.7,-1516.54,-707.45,26.7268,33.8333,10.9936,2402.69,10890.2,-3312.43,22.1959,31.7825,-1.75446
389,0,10562.9,-1822.62,-670.465,24.9869,29.6252,9.08838,2173.17,10194.7,-3185.73,20.3846,34.8264,3.49576
389,1,9984.71,-2112.48,-544.91,24.4516,26.3157,7.13716,2084.19,9879.86,-3135.23,19.5889,36.1578,6.18696
390,0,9331.25,-2347.17,-360.63,23.6601,24.2253,5.32285,2013.66,9387.42,-2981.09,18.3713,38.0147,10.5405
390,1,8629.8,-2565.05,-103.379,23.2777,21.4986,3.91966,2006.31,9167.53,-2862.41,17.6683,38.917,12.7574
391,0,8143.31,-2773.37,63.2471,22.7753,17.7196,2.59353,2129.4,8726.53,-2699.75,16.6482,40.7586,16.9736
391,1,7957.3,-2875.33,95.7681,22.3938,15.9771,1.84536,2204.99,8506.76,-2677.86,16.3415,41.4784,18.6578
392,0,7807.74,-2967.46,52.761,21.4043,17.968,1.61604,2260.04,7974.93,-2489.18,16.2958,42.8023,20.9711
392,1,7634.19,-3068.01,16.8037,21.1888,22.9182,1.44845,2267.32,7697.58,-2405.01,16.0979,43.2774,22.0268
393,0,7105.79,-2992.96,31.0803,22.0866,26.885,1.21989,2239.83,7260.05,-2277.14,16.493,43.5209,23.2295
393,1,6541.79,-2823.04,-11.8677,22.2411,26.101,1.24981,2213.48,7006.87,-2257.69,17.0571,43.4607,23.9627
394,0,6206.18,-2802.36,57.2838,21.7844,22.126,1.00666,2142.94,6587.23,-2211.16,17.971,42.5932,25.0438
394,1,6210.41,-2828.71,39.6002,21.6007,18.1917,0.686446,2142.77,6445.22,-2160.83,18.5055,42.1802,25.4571
395,0,6445.95,-2888.49,-4.72938,22.1787,16.7541,0.792307,2314.85,6225.37,-2153.58,19.3734,40.3999,26.72
395,1,6613.78,-2859.97,-53.7884,22.9713,18.5022,0.762383,2381.01,6131.59,-2161.95,19.9993,39.5889,27.2254
396,0,6535.2,-2833.56,-52.7019,22.8513,20.3329,0.184054,2567.41,6020.43,-2146.44,21.0804,38.0974,27.8494
396,1,6411.85,-2858.62,-72.9715,22.7439,20.5948,-0.228189,2636,5942.5,-2126.08,21.6763,37.0743,28.3683
397,0,6357.85,-2907.68,-167.417,23.3828,19.6817,-0.533067,2810.44,5802.61,-2146.35,22.2247,35.4755,29.1602
397,1,6363.76,-2877.92,-224.996,25.1036,18.66,-0.74667,2911.26,5778.37,-2136.86,22.5606,34.7262,29.1621
398,0,6368.58,-2813.29,-284.807,26.7964,17.7757,-0.975235,3230.35,5791.56,-2198.93,22.6676,33.5845,29.4961
398,1,6379.33,-2735.5,-276.582,27.2408,16.2831,-1.40169,3372.15,5833.39,-2257.66,22.8655,32.821,29.3147
399,0,6468.96,-2697.11,-253.815,27.1192,14.4845,-1.75258,3582.52,5932.65,-2269.7,23.1094,32.1353,28.9791
399,1,6608.97,-2752.01,-198.822,27.0732,13.3855,-1.92054,3652.35,5986.65,-2280.45,23.3077,32.0425,28.6286
400,0,6696.48,-2801.16,-181.959,28.0772,13.0795,-2.08813,3761.07,6034.5,-2409.51,23.0342,31.3886,27.7151
400,1,6788.6,-2696.11,-192.711,28.6885,12.0904,-2.08851,3840.21,6062.09,-2415.82,22.9268,31.1129,27.2108
401,0,6932.17,-2535.71,-149.733,28.4154,10.4448,-1.93626,3983.69,6156.51,-2493.38,22.7899,30.5043,25.3543
401,1,7136.78,-2408.74,-83.9003,28.1101,9.2698,-1.98152,4016.3,6197.37,-2534.24,22.6983,29.9398,24.8017
402,0,7339.12,-2315.33,72.7357,27.5924,7.65526,-2.0122,4134.54,6301.33,-2570.11,22.1353,29.452,22.5352
402,1,7621.46,-2218.38,220.06,26.4806,6.09982,-2.42294,4240,6363.73,-2609.62,21.9969,29.3293,21.6314
403,0,7818.02,-2160.83,271.705,24.8807,5.82299,-2.97172,4405.04,6570.48,-2719.61,21.3733,29.6031,19.1209
403,1,8097.89,-2153.58,338.654,23.0365,7.17716,-3.70305,4478.3,6668.98,-2799.92,21.2042,29.8777,18.0189
404,0,8321.95,-2201.37,430.809,21.3288,9.26492,-4.49573,4612.17,7059.72,-2937.43,20.2155,30.2129,14.7778
404,1,8520.65,-2260.04,519.409,20.1844,10.3647,-5.28842,4711.67,7205.31,-2960.47,19.9237,30.3505,13.1262
405,0,8743.27,-2281.66,634.272,18.935,11.1877,-6.35493,4806.21,7462.21,-3119.31,18.8437,30.4115,9.18453
405,1,9001.79,-2316.32,805.361,17.6392,11.9501,-7.65038,4849.42,7596.7,-3206.97,18.1105,30.3356,7.05971
406,0,9262.77,-2380.92,1042.28,16.1761,13.7315,-8.85493,4927.12,7961.2,-3271.57,17.0294,30.168,3.66492
406,1,9438.91,-2416.91,1281.73,14.4692,15.9569,-9.96783,4987.05,8095.96,-3336.22,16.4335,29.8938,1.89175
407,0,9612.44,-2476.69,1491.28,13.3855,17.0264,-10.7459,5120.95,8489.04,-3473.74,14.379,29.2694,-2.1416
407,1,9815.9,-2595.11,1692.39,12.1211,18.2904,-11.7361,5186.99,8690.8,-3589.95,13.537,28.9485,-3.7341
408,0,9890.4,-2657.51,1800.32,10.5817,19.6169,-12.6968,5249.18,8951.43,-3600.91,11.1024,29.0394,-7.67505
408,1,9951.39,-2681.48,1970.12,8.35742,20.2129,-13.3832,5303.08,9084.69,-3628.35,9.98542,28.8572,-9.46544
409,0,10034,-2740.05,2156.9,5.00563,19.7116,-13.7648,5304.38,9228.19,-3685.78,7.50488,29.2825,-12.2355
409,1,10227.7,-2797.54,2224.17,0.7538,19.3753,-13.7502,5282.84,9266.76,-3701.44,6.25094,29.4969,-13.4292
410,0,10511.3,-3007.91,2285.15,-3.56051,20.9722,-13.537,5162.13,9233.3,-3669.18,4.04386,30.1511,-14.0842
410,1,10787.9,-3256.94,2260.21,-6.00329,25.1298,-13.43,5069.83,9251.14,-3701.35,3.12547,30.6397,-14.1314
411,0,10944.9,-3454.55,2184.83,-6.00704,30.5402,-13.5059,4965.75,9185.51,-3672.79,1.81656,30.823,-12.488
411,1,10939.2,-3532.58,2017.42,-4.84963,35.5566,-13.9473,4944.01,9170.97,-3661.92,1.31116,30.7624,-11.5405
412,0,10862.6,-3493.24,1860.52,-4.23837,38.0005,-14.4961,4813.81,9153.08,-3595.03,0.732833,30.5035,-8.39034
412,1,10719.1,-3426.21,1731.2,-3.59869,39.9663,-15.6382,4780,9181.69,-3625.91,0.822608,30.0161,-6.69348
413,0,10642.3,-3402.18,1667.63,-2.86698,41.0811,-17.2078,4740.61,9104.14,-3640.39,0.823359,29.6955,-2.85802
413,1,10501.2,-3306.58,1610.2,-1.95272,41.1436,-18.6716,4751.24,9045.35,-3624.85,0.610131,29.4972,-1.28124
414,0,10379,-3185.67,1587.37,-1.61604,40.5043,-20.0284,4756.09,9100.23,-3630.78,0.731333,28.4928,3.08579
414,1,10277.3,-3040.87,1549.12,-1.76792,40.2136,-21.2786,4758.47,9078.9,-3594.98,0.655769,28.262,5.05985
415,0,10090.7,-2934.23,1576.5,-1.96618,40.046,-22.4525,4677.24,9025.02,-3585.31,0.199015,27.2887,8.62112
415,1,9839.38,-2793.08,1808.37,-1.32763,38.2201,-23.611,4624.45,8972.35,-3575.76,-0.0759383,26.86,10.2125
416,0,9769.55,-2602.81,2014.45,-0.321716,35.7508,-24.7239,4530.01,8690.31,-3500.47,-0.669607,25.9165,12.9672
416,1,9800.6,-2441.12,2180.87,1.49072,35.1676,-25.8215,4490.35,8592.8,-3447.71,-0.944935,25.4729,14.1153
417,0,9793.52,-2249.67,2307.83,2.51421,35.7762,-26.417,4633.68,8464.96,-3380.73,-2.11656,25.0161,16.8087
417,1,9783.91,-2018.68,2300.9,3.86952,37.2991,-27.4372,4690.23,8447.89,-3336.37,-2.72819,24.8781,18.3219
418,0,9857.97,-1893.95,2220.76,4.08574,39.6151,-28.4741,5025.94,8717.95,-3206.09,-4.81295,25.1063,20.5903
418,1,9843.84,-1847.18,2165.62,3.84184,43.4386,-28.5826,5145.12,8762.87,-3157.97,-5.76164,25.4111,21.3718
419,0,9637.06,-1845.91,2144.03,3.82613,46.1095,-28.2171,5251.47,8579.97,-2940.52,-7.35971,26.1267,21.6306
419,1,9374.9,-1880.58,2108.16,3.79583,45.5967,-27.7903,5289.98,8530.53,-2922.01,-8.2766,26.7522,21.6617
420,0,9301.49,-1916.51,1943.21,3.59794,42.962,-27.1809,5362.86,8439.75,-2678.45,-9.87505,27.3923,22.4678
420,1,9481.86,-2010.95,1744.48,3.58223,41.328,-26.6015,5383.37,8386.93,-2583.36,-10.731,27.6979,22.7439
421,0,9740.41,-2086.45,1562.49,3.46065,41.9494,-26.0983,5564.95,8297.27,-2315.74,-11.5839,28.3372,23.5198
421,1,9996.6,-2198.88,1370.98,3.23208,44.0816,-25.7474,5784.07,8377.09,-2151.34,-12.0118,28.6279,23.9631
422,0,10275.5,-2306.66,1131.65,3.17073,45.9274,-24.9862,6345.98,8854.05,-1900.26,-12.6665,30.0733,24.5264
422,1,10648.8,-2374.96,824.106,2.98818,47.3455,-24.2085,6592.28,9063.13,-1774.21,-12.8202,30.7313,24.9233
423,0,11079.7,-2403.75,519.998,2.37917,49.691,-22.6096,7151.58,9535.18,-1345.19,-13.0331,33.4397,23.5396
423,1,11305.2,-2422.9,377.227,1.00853,52.4652,-20.3999,7409.89,9722.78,-1185.17,-13.1554,34.6944,22.7293
424,0,11497.8,-2520.9,347.174,0.472842,54.3573,-17.7634,7511.65,9430.19,-780.129,-12.1667,38.4225,17.7843
424,1,11528.1,-2598.81,592.057,1.29395,53.4783,-15.2477,7565.62,9270.47,-574.756,-11.6924,39.9993,15.5196
425,0,11330.9,-2639.56,1094.49,2.45249,48.7588,-13.265,7474.9,8964.48,-134.929,-8.99934,44.2294,10.3303
425,1,11159.6,-2687.41,1654.73,3.56539,41.1103,-11.9834,7437.59,8864.54,62.1315,-7.47083,46.2031,7.56323
426,0,11048.2,-2758,2060.86,8.35963,33.6391,-10.8858,7260.78,8641.13,489.973,-3.28559,51.7877,-0.38079
426,1,10893.9,-2408.13,1988.72,17.1345,27.9957,-9.60572,7205.34,8501.94,659.536,-1.0841,54.3278,-4.06778
427,0,10671.3,-1628.21,1336,24.4108,24.106,-8.76628,7124.12,8089.61,1035.94,4.59261,61.784,-11.662
427,1,10331.6,-1006.39,486.157,27.5427,22.6384,-8.23246,7128.67,7940.41,1230.47,7.17829,65.4852,-14.9525
428,0,10033.3,-617.029,-419.967,31.0609,20.9786,-7.28827,7340.21,8066.99,1369.25,12.6874,74.9966,-18.6211
428,1,9914.49,-449.082,-991.698,34.1269,17.4757,-5.87125,7411.24,8122.31,1422.13,16.3224,81.5173,-20.1668
429,0,9890.46,-356.868,-1450.18,34.5433,13.0862,-4.57505,7745.76,8140.26,1455.62,22.6103,94.8683,-20.168
429,1,9995.57,-564.561,-1465.46,34.1774,8.34582,-3.49245,7875.69,8148.66,1422.24,25.5619,101.108,-19.6199
430,0,10318.4,-1057.38,-1098.43,36.0478,3.25491,-2.72969,7971.31,8182.12,1250.1,33.81,118.578,-17.4888
430,1,10819.8,-1501.74,-671.023,39.7194,0.308249,-1.83077,7979.92,8207.29,1143.34,37.7869,126.717,-16.5098
431,0,11289.2,-1822.74,-267.564,43.5157,1.62726,-1.35718,7832.92,8190.61,895.902,45.6707,142.485,-14.3944
431,1,11483.6,-2154.25,151.378,47.007,6.13534,-0.367726,7768.02,8269.4,804.481,50.6352,152.383,-13.4001
432,0,11439.6,-2574.28,513.034,52.2471,9.03636,1.26253,7844.43,8545.6,423.348,58.7655,168.948,-12.5625
432,1,11372.5,-2933.59,720.405,56.5491,9.16243,2.71136,7875.72,8678.88,271.793,62.2236,176.519,-12.3627
433,0,11322.3,-3192.31,779.276,63.9806,7.4727,5.14814,7722.81,8595.39,1.73351,70.7302,194.538,-14.4318
433,1,11095.2,-3287.17,864.145,73.1412,5.21697,8.22684,7624.43,8475.65,-125.615,74.5253,202.724,-15.4871
434,0,10854.5,-3263.37,926.483,81.3295,1.9415,11.3063,7418.82,7984.41,-339.565,83.2755,222.522,-18.3024
434,1,10464.5,-3158.14,927.775,88.1304,-2.11245,14.4007,7279.72,7743.02,-478.693,87.3298,231.869,-19.5268
435,0,9961.88,-3004.97,895.49,94.0005,-6.27413,17.3736,7139.74,7129.93,-954.361,96.0957,251.213,-20.0905
435,1,9447.11,-2670.14,774.752,99.1692,-10.7399,19.844,7000.85,6883.43,-1177.8,100.5,260.482,-19.8332
436,0,9038.68,-2277.49,751.75,102.526,-14.9024,22.0698,6529.88,6454.42,-1775.32,112.811,283.111,-18.5998
436,1,8790.63,-1949.35,738.648,103.506,-17.7402,24.4475,6332.77,6222.72,-2021.79,118.503,293.332,-17.9122
437,0,8699.41,-1757.58,668.114,104.054,-17.2127,27.0234,5921.67,5940.53,-2598.96,131.453,313.999,-14.2907
437,1,8625.24,-1615.1,481.572,104.344,-13.7715,29.6454,5592.06,5863.39,-2933.79,137.435,323.303,-12.8359
438,0,8536.67,-1486.99,254.138,104.573,-10.7358,31.2177,5145.92,5869.38,-3495.68,147.724,338.081,-9.32104
438,1,8381.17,-1412.67,74.4698,105.866,-6.04481,33.2587,4989.57,5881.33,-3746.76,152.299,344.752,-7.48616
439,0,8232.68,-1340.87,-74.0002,108.517,-1.59172,34.9824,4284.65,6028.31,-4292.94,161.963,356.882,-3.83323
439,1,8061.56,-1214.08,-192.564,109.816,0.546539,36.1417,4000.81,6108.74,-4503.42,165.928,361.873,-2.18091
440,0,7893.93,-1271.13,-166.507,111.962,1.27974,36.6306,3582.55,6513.82,-4809.35,171.24,367.87,1.36504
440,1,7813.56,-1316.78,-220.12,115.543,1.17425,36.753,3411.81,6617.63,-4933.2,173.292,370.213,2.72819
441,0,7825.4,-1375.36,-276.464,119.126,0.0022418,36.677,3252.82,6883.96,-5002.56,174.83,372.192,4.67605
441,1,7898.34,-1397.01,-337.48,123.012,-1.00479,36.6007,3167.6,7044.8,-5076.79,175.579,372.805,5.53307
442,0,8016.79,-1365.96,-408.101,126.58,-1.76717,36.631,2954.86,7547.94,-5209.55,175.26,372.486,6.97891
442,1,8113.82,-1383.79,-451.256,130.269,-1.99686,36.6007,2844.4,7766.67,-5255.26,175.122,372.013,7.62158
443,0,8171.34,-1386.26,-452.519,132.543,-2.14911,36.631,2417.79,8244.69,-5142.98,171.699,367.92,7.77421
443,1,8269.4,-1362.34,-360.511,135.133,-2.8797,36.8746,2218.35,8416.78,-5133.11,170.001,365.627,7.7136
444,0,8334.14,-1337.2,-269.472,137.36,-4.02253,37.0882,1972.09,8605.58,-4945.63,165.984,359.19,7.22655
444,1,8435.79,-1288.17,-148.646,138.459,-4.78565,37.2711,1917.71,8702.85,-4836.38,163.874,356.176,7.02753
445,0,8594.92,-1245.04,-93.4178,138.887,-4.80211,37.1345,1853.26,9055.37,-4660.64,157.482,347.456,7.55986
445,1,8792.39,-1221.07,-53.9355,139.192,-4.66482,37.0732,1839.92,9259.39,-4567.02,154.651,343.402,7.78955
446,0,9016.21,-1162.49,-7.2559,139.177,-4.99926,36.9363,1761.1,9651.48,-4284.97,148.001,333.678,7.66797
446,1,9235.3,-1126.51,140.979,138.553,-5.48706,36.8446,1679.64,9826.89,-4126.55,144.987,329.043,7.62195
447,0,9361.18,-1163.49,391.034,137.897,-6.97891,36.7836,1460.87,10017,-3759.6,139.401,318.542,7.07429
447,1,9564.47,-1152.86,649.637,137.288,-10.1773,36.9052,1368.34,10049.7,-3647.56,135.842,311.486,6.52514
448,0,9968.75,-1130.09,799.488,136.587,-12.1929,36.9512,1327.65,10302.9,-3243.77,130.132,298.743,5.26148
448,1,10485.8,-1200.54,774.634,135.764,-12.7892,36.9056,1302.48,10469.7,-3086.17,127.365,293.007,4.64986
449,0,10928.9,-1351.27,620.377,135.777,-9.99064,36.7077,1419.51,10768.6,-2638.11,120.44,278.641,3.84296
449,1,11057.6,-1389.84,542.353,137.04,-3.77598,36.2356,1446.13,10903.1,-2429.04,117.547,272.245,3.27809
450,0,10861.7,-1392.22,492.089,137.987,0.634834,36.0976,1437.73,11046.6,-2136.18,110.928,259.05,2.44052
450,1,10588.8,-1536.78,514.68,138.627,0.885453,35.5956,1397.1,11072,-1990.89,108.005,252.763,1.87565
451,0,10405.4,-1645.89,644.996,138.598,-2.02194,34.8792,1412.52,11155.6,-1607.26,102.404,241.44,1.90521
451,1,10395.6,-1809.72,849.605,137.624,-4.84365,33.9649,1432.91,11171.4,-1398.39,99.7427,236.086,1.95122
452,0,10451.8,-1994.09,919.344,136.633,-6.12675,33.2631,1572.71,11309.9,-1061.26,93.3357,223.941,2.36197
452,1,10438.8,-2158.13,920.578,136.129,-6.022,32.9729,1639.98,11315.1,-964.849,90.459,218.327,2.81947
453,0,10339.5,-2283.89,983.885,135.763,-7.19251,32.6987,1625.71,11264.8,-691.291,84.6607,207.43,4.61545
453,1,10334.5,-2319.97,1034.24,135.853,-8.85419,32.7132,1604.14,11224.1,-498.199,81.9378,202.594,5.45676
454,0,10439.7,-2265.03,932.769,136.234,-10.5005,32.9265,1642.33,11071.1,-313.948,77.6758,194.011,7.92198
454,1,10483,-2170.5,859.592,136.068,-10.2757,32.8965,1631.7,11012.2,-241.858,75.7938,190.048,9.31282
455,0,10411.3,-2069.94,786.62,135.154,-9.10257,32.729,1809.64,10983.5,-51.8488,71.1829,180.872,12.7069
455,1,10242.7,-1972.97,708.801,133.691,-9.1456,32.4547,1865.1,11010.9,16.7448,68.9193,176.832,14.1912
456,0,10151.5,-1837.78,603.515,132.563,-10.5005,32.1042,1830.43,10718.3,230.608,64.688,167.975,16.885
456,1,10176.5,-1617.66,459.921,131.587,-11.4167,31.4645,1776.59,10454.6,391.269,62.8973,163.799,18.0177
457,0,10193.3,-1351.94,303.108,130.383,-10.6726,30.7328,1744.21,10095.8,539.651,60.3707,155.732,20.2091
457,1,10194.5,-1118.43,102.083,128.007,-9.54436,29.9555,1784.78,9975.48,618.821,59.1168,151.939,21.1885
458,0,10208.8,-948.338,-116.979,125.126,-7.67095,29.1628,2001.14,9675.57,771.845,56.8641,142.762,22.9235
458,1,10099,-805.861,-183.134,123.341,-6.58649,28.7809,2068.59,9537.38,818.817,55.8847,138.767,23.7951
459,0,9866.9,-659.829,-100.732,120.888,-5.90042,28.3544,2197.61,9266.09,883.329,54.7887,130.291,24.587
459,1,9723.01,-597.405,7.02164,117.947,-6.64448,27.7297,2319.82,9175.79,930.096,53.9492,126.146,24.7714
460,0,9621.25,-642.733,187.63,115.643,-8.4573,27.059,2450.25,8923.7,974.367,53.0047,119.646,24.4366
460,1,9585.21,-685.888,311.1,114.666,-10.3326,26.4339,2485.18,8792.8,975.659,52.5614,116.892,24.2836
461,0,9567.26,-694.318,342.356,114.923,-11.1578,25.6416,2689.47,8511.93,957.71,51.8611,110.759,23.2186
461,1,9515.85,-636.975,305.341,114.878,-10.3221,24.7879,2776.04,8422.8,945.724,51.3725,108.324,22.7289
462,0,9424.93,-560.36,288.509,113.676,-7.90063,24.1624,2875.25,8197.01,850.132,50.5503,103.835,21.8158
462,1,9270.61,-533.922,251.464,111.65,-4.95884,24.0244,2888.64,8121.13,901.249,50.3505,101.694,21.2049
463,0,9062.39,-467.001,246.588,109.09,-2.51869,24.1613,2907.71,7927.6,835.767,49.9095,98.36,20.3674
463,1,8824.2,-430.986,302.757,107.365,-1.4492,24.2073,2916.14,7805.21,833.124,49.4366,96.4043,19.6199
464,0,8633.75,-436.92,374.583,104.959,-1.28049,24.4355,2937.64,7710.68,828.423,48.8273,93.268,18.4015
464,1,8554.56,-472.789,446.409,102.762,-1.59996,24.5122,2898.28,7688.97,802.101,48.3847,91.8607,18.0031
465,0,8531.76,-487.213,489.563,101.07,-1.29657,24.5122,2886.2,7532.48,712.443,47.6994,88.8778,16.2079
465,1,8506.64,-524.257,544.586,99.3929,0.119345,24.3753,2865.9,7450.81,681.158,47.5457,87.4248,15.4728
466,0,8452.82,-604.397,649.843,97.8225,2.19177,24.1924,2969.78,7408.92,647.697,46.7851,85.4306,14.9704
466,1,8412.08,-727.633,765.969,96.0243,3.65668,24.0551,3121.81,7519.94,640.442,46.2049,84.2694,14.5432
467,0,8586.43,-990.732,827.131,93.632,4.46544,23.8418,3927.32,8309.94,684.654,43.9526,84.8613,13.8123
467,1,9092.27,-1447.72,855.891,93.0791,8.2396,24.1912,4217.32,8536.58,677.603,42.8666,85.122,13.1412
468,0,9481.75,-1851.35,887.001,95.0266,15.6124,25.5159,4260.42,8581.91,713.384,41.0097,85.9891,10.3408
468,1,9566.03,-2223.64,974.279,97.0399,21.5166,27.4664,4264.09,8592.8,738.589,40.4725,86.4174,9.22303
469,0,9527.81,-2611.48,1022.28,97.9564,23.3526,28.5355,4336.94,8769.59,810.299,39.3012,86.6004,5.906
469,1,9564.73,-2946.78,749.955,98.4749,21.9392,29.7692,4408.83,8854.9,843.934,38.4461,86.6464,4.22377
470,0,9606.68,-3112.29,412.299,97.5023,18.2534,30.9891,4435.24,8859.75,922.811,38.0189,86.7833,2.24448
470,1,9579.27,-3306.06,-196.448,96.5865,13.5897,32.4215,4356.42,8768.95,933.768,38.155,87.0119,1.09868
471,0,9180.16,-3386.55,-710.391,98.228,5.85172,34.0371,3518.73,7936.02,907.446,40.97,85.9779,0.275692
471,1,8634.34,-3280.29,-898.869,102.356,-8.98339,34.9076,3185.61,7619.64,918.14,42.4379,85.3816,0.152253
472,0,8430.12,-3051.8,-834.562,107.644,-26.6951,34.6502,3498.45,7998.22,866.818,45.7254,84.5291,2.92125
472,1,8684.4,-2787.26,-790.116,110.531,-39.8909,33.3712,3904.34,8464.02,826.043,47.0878,84.6791,4.20658
473,0,9293.24,-2705.48,-1000.34,107.522,-46.0452,32.3032,4641.06,9300,808.065,48.6099,86.0037,6.61121
473,1,10119,-2951.54,-1312.73,98.948,-44.3046,32.4383,4823.19,9600.63,765.028,49.5418,86.3568,7.7888
474,0,10839.9,-3437.26,-1443.6,92.6754,-40.3415,33.063,4679.74,9738.17,658.595,52.7073,85.4744,8.56578
474,1,11169.8,-3751.35,-1259.76,85.15,-31.662,34.3727,4610.09,9806.59,616.529,54.3128,85.046,9.09996
475,0,11191.8,-3847.41,-1059.7,78.2568,-24.5215,35.3951,4404.54,10027.7,379.955,56.9311,80.1167,8.65966
475,1,11137.9,-3999.23,-775.013,74.0906,-22.8509,35.9749,4273.78,10120.2,272.997,57.6983,77.6998,8.38434
476,0,11152.1,-4024.7,-809.007,73.2317,-23.7633,36.554,4144.58,10016.4,-16.1904,58.6414,71.7342,8.53622
476,1,11136.7,-3952.96,-1062.59,74.2814,-25.0894,37.255,4090.53,9928.86,-163.893,58.8265,69.0869,8.32373
477,0,11060.2,-3666.06,-1213.7,75.7295,-26.9786,37.1196,3955.48,9822.39,-508.104,58.8262,61.1285,10.2398
477,1,10965.6,-3279.46,-1129.09,76.052,-30.0558,35.9625,3915.71,9742.11,-685.8,58.9784,57.35,11.3254
478,0,11038.3,-2939.37,-912.556,74.348,-32.8315,33.9211,3985.01,9571.14,-1013.32,57.9747,49.0557,14.5212
478,1,11142.5,-2697.4,-669.551,71.4073,-32.289,31.5281,4040.15,9465.59,-1216.05,57.4394,45.3528,16.1421
479,0,11055.5,-2560.77,-414.591,69.6514,-30.2473,30.0931,4111.92,9175.13,-1514.99,56.9217,38.5193,19.5362
479,1,10649,-2490.06,-163.185,68.0971,-26.3179,28.0828,4229.16,9033.43,-1618.45,56.5858,35.4743,21.3856
480,0,10033.9,-2479.19,21.2999,67.9568,-23.3574,26.0396,4498.22,8855.28,-1884.9,55.2009,30.117,25.2518
480,1,9635.94,-2534.15,80.1693,69.8287,-22.4701,24.3622,4620.72,8754.49,-2051.67,54.4823,27.9126,27.1024
481,0,9098.9,-2756.51,7.34301,74.1693,-23.4278,23.4614,5029.42,8595.48,-2271.7,52.154,25.9184,29.9641
481,1,8611.42,-3093.96,-205.522,80.7666,-25.743,23.3383,5262.25,8518.63,-2386.92,50.9004,25.5331,31.0819
482,0,8205.53,-3564.19,-433.015,88.6766,-29.369,23.7644,5597.03,8351.3,-2550.72,49.0887,27.1615,31.6606
482,1,7884.56,-4046.68,-570.849,96.7104,-34.9298,24.5414,5665.94,8223.04,-2575.01,48.0346,28.687,31.4642
483,0,7734.62,-4484.89,-587.798,104.196,-42.6247,24.9387,5798.47,7971.95,-2752.95,46.6336,32.356,30.4743
483,1,7820.43,-4839.38,-591.353,110.737,-50.4456,25.0457,5853.81,7838.73,-2876.51,46.1739,34.2515,29.8635
484,0,8058.47,-5051.5,-633.186,116.014,-56.4399,24.7415,5752.28,7647.43,-3119.19,45.3827,39.0761,27.3372
484,1,8366.05,-5198.8,-632.098,118.899,-59.0828,24.5885,5731.69,7571.7,-3190.28,44.8938,41.34,26.1593
485,0,8697.62,-5251.65,-616.529,121.825,-60.3337,24.7557,5718.59,7522.67,-3336.02,44.3151,45.8298,24.0285
485,1,8896.62,-5243.33,-620.084,124.265,-59.0124,24.9996,5726.9,7515.38,-3403.32,44.2833,48.0776,23.0342
486,0,9110.78,-5191.92,-658.333,125.684,-54.7332,25.563,5746.06,7671.91,-3592.13,43.3252,51.9592,21.01
486,1,9280.9,-5075.91,-731.305,126.341,-48.3184,26.0968,5797.46,7773.87,-3667.89,43.0335,53.7184,19.8638
487,0,9371.99,-4974.09,-819.876,126.372,-40.6523,26.539,5974.4,7794.32,-3780.23,41.9991,58.512,17.5045
487,1,9368.55,-4897.45,-910.855,126.159,-33.4557,26.9658,6089.53,7756.1,-3809.19,41.5094,60.6087,16.4032
488,0,9354.16,-4796.95,-976.747,126.143,-27.7367,27.3014,6328.63,7839.62,-3910.72,41.4178,65.9499,14.7288
488,1,9362.5,-4679.65,-1009.12,126.615,-23.801,27.2868,6423.6,7857.8,-3916.97,41.4481,68.7783,14.0248
489,0,9444.97,-4520.52,-1004.39,126.905,-21.6489,26.7541,6627.95,7928.25,-3993.35,42.8782,74.623,13.8721
489,1,9582.57,-4383.97,-1025.86,126.814,-20.8088,26.4485,6719.28,7939.2,-4040.18,43.7188,77.4675,13.7502
490,0,9734.59,-4298.9,-1041.46,126.403,-19.6667,25.9461,6777.88,8034.74,-4074.87,46.9449,84.6051,13.8108
490,1,9830.48,-4277.25,-1040.29,125.733,-18.6903,25.4732,6805.5,8064.88,-4073.76,48.1704,87.94,13.5676
491,0,9899.92,-4272.46,-1010.41,124.91,-18.3843,24.6356,6698.01,8117.43,-4138.24,51.1983,95.0473,13.7951
491,1,9945.46,-4285.59,-1022.28,124.147,-18.3537,23.66,6646.33,8088.9,-4182.63,52.6515,98.4581,14.0394
492,0,9987.35,-4351.34,-1033.09,124.192,-18.1255,22.0911,6455.15,8184.35,-4308.13,55.0412,104.273,15.4089
492,1,9998.19,-4396.9,-1127.48,124.497,-17.2273,20.0946,6331.59,8236.02,-4408.8,55.9296,106.645,15.808
493,0,9883.5,-4469.84,-1219.72,125.03,-16.3579,18.0215,6139.08,8394.96,-4619.23,57.573,111.074,17.1162
493,1,9705.18,-4556.03,-1308.29,126.233,-16.0216,15.7201,6009.59,8453.91,-4672.31,58.2923,112.637,17.4697
494,0,9489.76,-4609.97,-1359.85,127.909,-16.5233,13.5246,5748.96,8459.9,-4837.14,58.5819,114.326,17.9867
494,1,9300.55,-4635.15,-1394.57,129.13,-17.255,12.1663,5669.47,8522.04,-4922.42,58.5216,114.832,18.4446
495,0,9209.39,-4675.8,-1410.17,130.896,-18.2605,10.2016,5490.27,8546.1,-5014.49,57.928,114.406,18.8104
495,1,9157.89,-4702.18,-1423.33,133.091,-18.993,7.80858,5447.97,8550.88,-5085.2,57.607,113.995,18.8112
496,0,9145.85,-4714.17,-1426.94,135.165,-18.5987,5.55212,5321.38,8530.58,-5171.33,56.1005,112.579,18.9174
496,1,9131.51,-4716.58,-1430.53,137.177,-16.9542,3.49391,5316.25,8491.1,-5231.26,55.1534,111.906,19.0091
497,0,9087.27,-4720.16,-1420.98,139.052,-14.4553,1.43607,5307.99,8437.25,-5200.29,52.9919,110.278,19.6177
497,1,8995.18,-4699.86,-1392.28,140.699,-11.6811,-0.317623,5333.02,8429.97,-5185.84,52.0889,109.711,19.954
498,0,8889.83,-4588.7,-1326.5,141.965,-9.19569,-2.10088,5257.84,8360.7,-5110.58,50.1867,108.782,20.4564
498,1,8791.65,-4424.75,-1228.39,142.713,-7.04583,-3.93015,5221.77,8318.69,-5049.44,48.7973,108.247,20.4728
499,0,8710.22,-4298.96,-1140.96,142.775,-5.38341,-5.80506,5416.48,8287.58,-4890.45,46.6654,108.262,21.4309
499,1,8701.7,-4174.49,-1066.73,142.927,-4.13286,-7.33019,5497.06,8250.48,-4841.08,45.6715,108.43,22.2247
500,0,8737.57,-4016.53,-994.9,142.76,-3.24816,-8.13932,5548.47,8104.65,-4651.12,43.5407,109.936,23.1083
500,1,8737.66,-3891.94,-844.225,141.953,-2.04472,-9.43367,5582.04,8023.04,-4587.29,42.5464,110.609,23.4449
501,0,8719.71,-3817.65,-731.567,140.156,-1.15965,-10.8211,5588.07,7903.48,-4483.35,41.3893,112.223,24.3884
501,1,8732.81,-3723.14,-522.314,138.037,-1.432,-12.3908,5620.32,7924.69,-4401.83,40.5346,113.337,25.0146
502,0,8785.43,-3488.77,-362.918,135.309,-2.54379,-13.672,5688.51,7940.38,-4249.98,39.3618,114.723,25.8522
502,1,8965.95,-3225.38,-351.904,131.242,-2.54638,-14.9675,5750.79,7935.59,-4186.3,38.8875,115.168,25.8694
503,0,9268.65,-3120.92,-541.916,126.653,-0.339621,-16.5371,5779.57,7995.31,-4036.91,37.4267,116.05,25.245
503,1,9423.43,-3096.92,-821.965,123.115,5.24925,-18.6399,5784.39,8019.37,-3977.99,36.4948,116.342,24.6502
504,0,9146.46,-2996.54,-970.696,119.944,8.3507,-20.4396,5651.78,7966.81,-3859.69,34.6528,115.474,22.641
504,1,8923.44,-2906.68,-1039,116.728,6.37695,-22.451,5571.38,7945.17,-3742.3,33.6746,115,21.6015
505,0,8918.33,-2783.47,-942.344,114.226,4.54472,-23.9462,5337.13,7890.2,-3622.62,31.3459,112.292,19.5009
505,1,9070.15,-2766.46,-876.336,108.547,3.79657,-26.3221,5244.54,7825.54,-3508.87,30.2447,110.946,18.6133
506,0,9167.3,-2840.58,-888.205,101.626,5.9405,-28.7465,5363.95,7985.5,-3298.38,26.0144,106.274,17.2587
506,1,9230.75,-2985.32,-895.431,96.1813,9.62823,-30.6528,5366.68,8051.69,-3247.71,24.1321,104.163,16.3272
507,0,9146.05,-3151.71,-780.742,92.1551,11.8877,-31.8278,5446.62,8132.94,-3064.96,18.8518,99.4452,14.6068
507,1,9004.81,-3226.12,-620.345,88.6181,12.2714,-32.6665,5460.01,8116.43,-2952.15,16.3126,97.1966,13.7203
508,0,8932.84,-3251.3,-486.212,86.5117,11.0695,-32.8659,5586.6,8170.08,-2791.93,11.0163,93.7565,12.3653
508,1,8888.54,-3259.7,-304.369,85.413,8.66261,-33.0028,5652.67,8196.54,-2722.25,8.59904,92.1353,11.4948
509,0,8960.13,-3221.48,-31.5746,84.4527,5.75148,-33.0944,5681.4,8054.38,-2507.15,2.87695,88.4827,9.78973
509,1,9077.43,-3129.38,258.138,83.3858,3.31135,-33.2923,5645.61,8038.47,-2397.87,0.169439,86.8607,9.13138
510,0,9236.57,-3016.87,534.69,82.6534,2.10495,-33.3537,5667,8006.3,-2173.17,-4.54896,83.6495,7.30544
510,1,9455.54,-2901.95,786.125,81.0852,1.98152,-33.4906,5689.8,7973.93,-2112.86,-6.58426,82.1656,6.34221
511,0,9546.81,-2833.62,969.405,78.556,3.51829,-33.491,5779.43,7982.24,-1912.18,-9.91741,79.8215,4.8047
511,1,9543.32,-2823.95,1074.87,75.5839,5.30229,-33.5213,5837.01,7940.46,-1804.11,-11.6602,78.2183,4.0098
512,0,9513.41,-2832.33,1204.07,72.5808,6.14246,-33.2628,5825.14,7770.69,-1586.57,-14.3548,75.508,2.16815
512,1,9472.72,-2920.75,1369.22,70.1406,6.18921,-33.1251,5839.41,7715.32,-1485.67,-15.6393,74.5582,0.992055
513,0,9486.97,-3042.84,1477.09,67.9758,6.24982,-33.0185,5850.22,7574.34,-1281.29,-17.4813,72.5954,-1.58056
513,1,9556.33,-3178.09,1541.78,66.1155,7.19328,-32.9422,5837.09,7487.95,-1187.58,-18.3226,71.7231,-3.017
514,0,9569.64,-3313.37,1527.56,64.5298,8.96046,-33.0181,5724.75,7417.35,-980.824,-19.2362,70.4597,-5.55932
514,1,9434.62,-3429.53,1446.24,63.5987,10.866,-32.8662,5720.88,7365.83,-907.417,-19.5122,70.0154,-6.56966
515,0,9221.61,-3478.73,1354.06,62.5475,11.2958,-32.5311,5703.05,7283.31,-700.717,-20.0599,68.9503,-9.01959
515,1,9125.58,-3475.21,1270.25,61.389,10.8697,-32.439,5711.33,7305.81,-574.724,-20.2896,68.4607,-9.95399
516,0,9270.03,-3471.59,1102.83,58.77,10.2297,-32.2108,5871.47,7590.27,-347.58,-20.8982,68.5059,-10.7302
516,1,9426.96,-3457.26,924.423,55.1125,11.5214,-31.7234,5984.18,7651.93,-216.799,-21.0063,68.5366,-11.1582
517,0,9594.5,-3391.51,658.855,50.7691,16.0741,-30.5813,5918.64,7584.95,43.807,-20.93,69.0843,-11.0826
517,1,9635.47,-3281.43,394.23,46.8502,21.8661,-29.0117,5921.99,7612.27,167.507,-20.8234,69.4965,-10.854
518,0,9451.48,-3111.55,226.462,43.9522,24.6316,-27.3197,5796.64,7635.1,486.604,-19.8343,69.984,-8.92147
518,1,9382.89,-2777.85,73.2624,41.5584,23.0985,-25.9318,5772.38,7666.18,642.734,-19.3753,69.9394,-8.01885
519,0,9627.78,-2427.04,-138.516,38.3742,20.4765,-24.7883,5890.71,7890.85,1058.63,-18.1427,70.015,-3.91056
519,1,10029.9,-2212.5,-411.368,34.4878,19.4063,-23.8276,5902.96,7941.61,1206.65,-17.5614,69.9697,-1.96766
520,0,10298.3,-2165.56,-601.903,31.5588,19.4052,-22.9586,5571.96,7640.49,1573.46,-13.7119,69.3914,2.1567
520,1,10202,-2282.63,-587.885,31.0972,18.7666,-22.5157,5399.06,7459.3,1752.44,-11.9826,68.8879,4.20584
521,0,9864.69,-2365.38,-318.936,33.8969,14.4747,-22.2108,4789.59,7073.2,2079.94,-7.21969,66.2703,5.77477
521,1,9657.24,-2315.32,-80.5174,39.5636,5.80745,-22.1798,4448.72,6956.35,2190.68,-4.80359,64.9705,6.31079
522,0,9490.88,-2150.28,286.667,45.4943,-4.86144,-22.3321,3812.76,7036.4,2436.8,1.46657,58.0625,3.28362
522,1,9630.31,-2019.68,539.595,50.1916,-13.4638,-22.6519,3482.63,7120.24,2547.37,4.25148,54.9712,1.38895
523,0,9878.1,-1981.22,639.15,53.1974,-16.4309,-22.8808,3097.59,7476.41,2754.13,9.57818,45.0196,-6.98062
523,1,10055.4,-1959.69,616.587,55.0281,-14.9884,-22.2879,2976.01,7722.23,2895.64,11.7825,40.1709,-11.11
524,0,10040.2,-1889.16,538.826,56.2027,-11.2411,-20.6127,2837.4,8214.8,3075.04,14.6896,30.4606,-19.1615
524,1,9885.93,-1720.53,492.059,57.6501,-6.48613,-18.2051,2816.73,8465.69,3119.66,15.701,25.9176,-22.894
525,0,9571.36,-1352.17,526.638,58.277,-2.55117,-16.0549,2803.65,8839.9,3221.19,17.0553,15.6143,-29.7279
525,1,9445.2,-997.685,472.992,57.5322,-0.96175,-14.9555,2814.35,8997.32,3266.87,17.6369,11.1305,-32.4836
526,0,9658.95,-781.975,177.721,55.248,1.73283,-13.5695,2895.64,9011.78,3352.91,16.9071,3.74887,-34.2803
526,1,9921.2,-715.91,-207.702,52.5194,6.89673,-12.0754,3010.53,9051.2,3394.95,16.6007,0.672208,-34.6345
527,0,10077,-701.516,-435.484,50.6427,11.1833,-10.9771,3298.69,9193.47,3363.93,15.49,-2.4941,-31.9717
527,1,10373.5,-742.116,-740.477,50.6547,12.5449,-10.3666,3492.92,9301.34,3384.14,14.7112,-4.02329,-30.2761
528,0,10706.4,-760.152,-1086.45,52.527,14.4172,-10.1983,3848.03,9351.69,3291.04,13.3409,-4.5268,-24.7971
528,1,10849.2,-607.242,-1327.27,54.5702,16.8256,-10.3655,3958.81,9329.07,3299.12,12.8356,-4.58851,-22.2729
529,0,10772.9,-415.676,-1264.37,56.1107,16.0698,-11.7504,4135.63,9339.74,3170.21,12.9418,-4.20806,-16.5811
529,1,10851.5,-318.53,-1071.72,57.9696,10.4525,-13.8838,4259.15,9415.06,3068.28,13.1247,-3.85717,-14.1172
530,0,11293.8,-229.988,-887.32,59.9817,3.47097,-16.0942,4467.2,9559.8,2939.11,13.0338,-3.68921,-10.2056
530,1,11763.2,-119.884,-821.255,62.2678,1.61604,-17.8786,4461.73,9543.4,2876.68,13.0791,-3.79546,-8.78086
531,0,11821.5,127.648,-828.365,63.4592,2.81764,-18.8404,4033.85,9047.45,2663.96,14.7528,-5.30193,-7.80672
531,1,11391.2,355.228,-689.82,64.3432,5.19421,-20.2567,3836.83,8851.44,2573.81,15.4418,-6.1578,-7.77384
532,0,11005.4,460.775,-526.956,65.3947,5.03215,-21.4466,3518.88,8692.45,2419.64,17.1308,-10.0229,-9.05249
532,1,10463.6,546.938,-280.541,65.899,1.42441,-22.1637,3426.09,8635.9,2398.93,17.8655,-11.7369,-9.90762
533,0,9990.45,387.033,165.637,66.9797,-3.39193,-22.2714,3521.68,8920.22,2232.95,18.155,-15.2219,-12.9819
533,1,9693.31,189.417,564.482,68.9601,-7.73764,-21.4802,3621.09,8980.72,2202.61,18.0035,-17.3912,-15.1957
534,0,9618.73,93.4751,767.117,69.6035,-10.5148,-19.8503,3654.73,9061.87,2147.73,17.151,-20.2085,-19.8086
534,1,9658.12,-2.23506,926.31,68.6758,-10.9606,-17.519,3647.59,9093.18,2108.13,16.5708,-21.4017,-22.0867
535,0,9672.58,-64.5711,1021.02,66.9389,-7.85678,-14.7908,3540.04,8799.28,2112.86,15.5506,-23.7151,-26.3031
535,1,9543.55,-119.623,1028.33,64.9117,-2.44787,-12.0316,3512.28,8664.69,2094.97,14.9244,-24.4969,-27.622
536,0,9256.48,-184.252,917.196,63.9795,1.21509,-10.2005,3453.76,8394.59,1987.39,13.7674,-24.9686,-28.6717
536,1,8877.1,-272.794,698.279,63.2482,5.146,-7.85457,3429.7,8250.53,1975.17,13.0952,-25.5327,-29.0244
537,0,8615.86,-311.217,529.336,63.3226,7.13231,-5.59774,3428.5,7940.96,1921.47,12.1207,-24.7579,-28.2942
537,1,8335.87,-276.61,267.409,64.2362,7.30211,-3.96563,3450,7832.65,1832.9,11.738,-24.2687,-27.9575
538,0,8041.37,-209.601,-73.6852,65.5619,6.61715,-2.95861,3385.55,7413.29,1763.42,10.8402,-22.2448,-25.6449
538,1,7774.36,-51.7573,-453.116,66.9187,4.71377,-2.19623,3332.79,7194.74,1715.51,10.3662,-21.1746,-24.6042
539,0,7548.05,231.76,-769.295,67.8038,1.17976,-2.0122,3387.67,6974.7,1615.07,9.66593,-17.9331,-21.3174
539,1,7447.26,494.034,-1047.05,66.9838,-2.60109,-2.10348,3516.87,6909.67,1577.79,9.3143,-16.2057,-19.9701
540,0,7478.19,698.818,-1183.8,65.3228,-5.81857,-1.95159,3764.46,6949.09,1478.61,8.30986,-12.6896,-17.3222
540,1,7576.29,897.522,-1138.58,63.6458,-8.2284,-1.75333,3803.25,6980.26,1417.43,7.66833,-11.0377,-16.2352
541,0,7722.26,998.281,-1008.18,62.8666,-9.46509,-1.61604,4032.55,7133.23,1328.94,5.87231,-6.92865,-15.5652
541,1,7916.12,1072.49,-843.019,62.5157,-10.7448,-1.53973,4177.75,7207.69,1327.53,5.25924,-5.24464,-15.092
542,0,8050.34,1156.27,-731.566,61.937,-11.4627,-1.88951,4339.21,7323.65,1328.8,3.41832,-2.20101,-16.4605
542,1,8296.67,1203.04,-547.4,60.034,-11.6767,-2.05784,4425.6,7359.78,1340.72,2.98744,-0.808755,-17.0881
543,0,8613.85,1172.04,-371.347,57.7626,-11.4791,-2.16445,4503.36,7320.35,1460.23,2.54675,0.926658,-17.4993
543,1,8935.87,1140.87,-255.134,55.4608,-10.9917,-2.0582,4499.95,7350.11,1538.2,2.37805,1.69161,-17.622
544,0,9263.87,1192.2,-262.1,52.3223,-10.1234,-1.82964,4656.39,7389.65,1716.31,3.19956,3.36568,-15.842
544,1,9572.76,1211.47,-391.214,48.223,-8.37194,-1.3119,4711.79,7416,1821.89,3.70381,3.99372,-14.8788
545,0,9763.32,1154.12,-395.116,43.8481,-5.85771,-1.06726,4654.44,7382.6,2032.29,5.69736,5.34794,-12.7023
545,1,9801.86,1009.41,-211.037,39.6404,-4.90909,-0.808387,4570.66,7383.69,2133.16,6.43275,5.79269,-11.8296
546,0,9826.95,870.487,-13.4498,37.4566,-5.04527,-0.549149,4462.97,7445.85,2256.31,8.79104,5.74705,-10.5817
546,1,9892.73,766.289,223.475,34.3804,-5.48707,-0.259606,4437.65,7497.38,2311.57,9.98393,5.73171,-10.2286
547,0,9901.24,684.857,394.827,31.0567,-5.199,-0.182927,4399.42,7630.08,2417.94,12.2214,4.59072,-10.4721
547,1,9886.88,647.668,484.718,28.5096,-4.55894,0.0452719,4389.76,7749.87,2466,13.3832,4.0704,-10.6857
548,0,9800.83,562.796,610.305,26.3294,-4.25333,0.669629,4373.05,7987.83,2528.16,15.2253,2.29008,-12.1922
548,1,9708.62,400.106,721.7,24.6973,-4.89192,1.40134,4338.35,8030.21,2493.67,16.0209,1.38784,-13.0937
549,0,9647.52,167.97,872.434,24.5575,-5.62399,2.40688,4221.19,8056.42,2525.78,17.3755,-0.864582,-15.1942
549,1,9537.5,83.8404,943.258,24.8167,-5.33629,3.50444,4145.64,8043.37,2513.97,18.0331,-2.36124,-16.3101
550,0,9476.31,-81.0853,970.813,23.6914,-4.95473,4.96712,3971.11,8038.52,2486.41,19.5246,-5.5429,-17.5588
550,1,9513.27,-338.368,958.914,23.2471,-4.10217,6.78069,3942,7996.72,2476.81,20.2282,-6.84387,-18.155
551,0,9589.85,-575.466,931.388,23.825,-1.97023,8.48838,3907.42,8053.95,2375.25,21.172,-9.64397,-17.2733
551,1,9667.67,-796.937,845.312,24.3895,-0.337388,9.72396,3928.81,8052.95,2377.37,21.4634,-10.9139,-16.8143
552,0,9729.95,-949.106,693.374,25.2424,2.28199,11.1866,3994.62,8101.86,2335.65,21.6916,-12.7253,-15.8555
552,1,9733.65,-1006.71,575.957,26.0355,5.92409,12.5894,4034.19,8110.38,2292.5,21.8596,-13.7034,-15.138
553,0,9747.96,-1176.43,457.48,26.9041,9.94812,13.8396,4159.69,8128.27,2230.31,22.0728,-14.9825,-13.4483
553,1,9685.88,-1330.97,347.318,28.2295,12.8468,14.8309,4195.85,8106.82,2208.66,22.0885,-15.8679,-12.8812
554,0,9566.23,-1493.72,274.23,29.8755,13.932,15.7456,4226.9,8043.43,2117.85,22.3927,-16.7212,-11.5423
554,1,9508.62,-1644.6,208.396,31.9479,13.2639,16.7059,4241.32,8043.28,2109.25,22.4544,-16.9512,-10.5955
555,0,9575.46,-1752.41,184.368,34.3256,11.5273,17.6815,4436.07,8110.24,2037.62,22.8498,-17.7271,-8.96636
555,1,9805.04,-1794.42,135.366,36.9016,9.89559,18.5202,4508.27,8162.97,2000.38,23.2617,-17.714,-8.20177
556,0,10085.1,-1832.7,19.3555,39.8886,9.10144,19.5867,4654.04,8388.85,1917.91,23.7644,-17.9414,-7.42516
556,1,10321.1,-1789.77,28.6439,41.903,8.68958,20.4714,4806.15,8486.2,1869.91,23.7199,-17.8206,-7.28641
557,0,10523.4,-1596.09,168.539,44.5534,7.09145,21.6292,5023.86,8817.2,1755.17,24.6626,-17.7439,-7.77348
557,1,10705.4,-1451.06,293.124,46.5828,4.21209,23.3661,5092.45,8997.27,1650.94,25.0913,-17.9721,-8.20067
558,0,11036.7,-1314.63,550.205,48.4727,2.31928,25.3476,5152.21,9239.98,1509.78,26.7194,-18.8703,-10.0726
558,1,11452,-1067.04,713.299,50.0132,2.0425,27.4054,5142.8,9481.9,1437.78,27.3474,-19.5115,-10.9446
559,0,11716.9,-770.19,953.664,51.7807,3.39673,29.296,5039.98,9896.91,1280,29.0667,-21.1859,-12.7709
559,1,11927.6,-461.352,1099.98,52.3474,4.1153,31.0797,4947.74,10049.6,1205.53,29.9993,-22.0268,-13.7644
560,0,12134.7,-207.452,1225.63,51.0089,3.56836,32.3003,4572.44,10189.5,1089.58,31.4912,-24.2336,-15.6368
560,1,12326.3,134.703,1406.3,48.3124,2.9429,33.1999,4481.89,10232.8,1028.36,32.0882,-24.9847,-16.1739
561,0,12738.8,509.403,1423.42,43.8642,5.36072,34.1905,4376.83,10433.5,797.716,32.7731,-25.5933,-15.3827
561,1,12976.3,721.614,1419.75,41.2528,8.63843,34.7251,4377.72,10676.6,622.694,33.0335,-25.7471,-14.8938
562,0,12850,904.72,1590.61,38.9671,13.9239,35.1822,4419.64,11018.7,463.53,32.136,-23.8605,-12.5807
562,1,12615.4,1107.01,1858.67,36.1173,16.933,34.7116,4411.35,11171.2,367.618,31.5554,-22.5015,-11.6011
563,0,12540.9,1191.05,1983.49,33.3577,18.9452,33.7363,4340.82,11337.4,66.4097,29.8204,-17.9203,-8.87728
563,1,12493,1194.72,2026.64,30.0815,24.1065,32.7454,4272.55,11444.2,-50.235,28.9488,-15.6875,-7.34885
564,0,12231.3,930.673,2013.57,27.473,30.6911,31.9523,4056.18,11549.5,-383.614,26.6508,-10.3152,-2.29631
564,1,11900.9,473.597,1952.58,26.3882,36.3487,31.6314,3917.06,11650,-539.799,25.5495,-7.82168,0.013868
565,0,11609.9,12.648,1737.39,26.9498,40.0562,32.0418,3832.04,11763.7,-799.174,23.4643,-3.72722,6.13147
565,1,11529.3,-383.701,1305.57,27.8341,41.9034,32.8797,3815.15,11869.1,-949.164,22.2572,-2.11955,9.02256
566,0,11687,-740.48,641.536,29.418,43.4884,33.9313,3672.99,11794,-1215.76,19.2891,1.13697,16.8599
566,1,11949,-900.076,-103.017,30.8821,46.4583,34.2986,3596.15,11735.2,-1311.99,17.8973,2.42332,20.3031
567,0,12155.1,-873.984,-815.371,31.3564,49.1427,34.0554,3604.43,11372,-1406.41,14.9599,4.87328,26.0409
567,1,12118.4,-910.886,-1525.23,30.444,54.0463,33.507,3642.71,11245.6,-1450.86,13.4767,6.03585,28.3679
568,0,11950.9,-961.207,-2023.66,28.6615,58.637,32.9886,3753.91,11085.5,-1520.19,11.1476,7.66466,30.9099
568,1,11477.5,-1047.31,-2811.82,25.478,58.5998,32.7746,3769.71,10996.6,-1592.04,10.0161,8.44458,31.9812
569,0,10918.4,-1043.93,-3843.48,19.7353,50.336,32.7439,3537.89,10629.8,-1694.92,9.05653,8.62787,30.3389
569,1,10660.4,-994.87,-4722.54,9.71199,37.1857,31.6486,3401.09,10385.1,-1770.42,8.91741,8.56726,29.4366
570,0,10706.7,-1124.99,-5052.71,-3.28749,26.4474,29.4093,2796.4,9747.99,-2033.38,10.3326,5.79818,24.035
570,1,10760.7,-1517.23,-4797.38,-15.6071,23.4767,26.0877,2499.75,9465.64,-2166.65,10.9752,4.33037,21.2977
571,0,10417.9,-2073.69,-4249.41,-25.2154,24.7532,23.3117,2118.37,9355.51,-2477.41,13.4555,-0.782787,15.8183
571,1,9859.01,-3160.85,-3403.56,-30.9533,24.3768,20.903,1908.37,9338.56,-2651.43,14.9985,-4.35591,12.5792
572,0,9427.74,-4354.49,-2481.77,-29.9434,22.3511,19.4377,1851.97,9481.96,-3031.54,17.3434,-10.6594,8.28505
572,1,9361.27,-4961.36,-1820.46,-23.0459,16.7022,17.0469,1865.04,9589.85,-3233.2,18.3683,-13.5194,6.28196
573,0,9575.2,-5173.65,-1468.06,-15.6814,10.2078,14.6528,2320.28,10309.2,-3630.07,19.6166,-19.3183,3.48074
573,1,10267.5,-5252.79,-1068.48,-8.06051,9.69293,13.0357,2585.51,10719.7,-3779.2,20.0456,-21.6149,2.57631
