Frame,Sub Frame,ACCX1,ACCY1,ACCZ1,GYROX1,GYROY1,GYROZ1,ACCX2,ACCY2,ACCZ2,GYROX2,GYROY2,GYROZ2
1,0,9193.79,-4276.04,-2321,-16.1742,17.7746,-6.61537,-4066.73,9422.38,2099.78,-1.3734,-5.44183,-0.0504819
1,1,9176.99,-4218.68,-2456.27,-16.1432,17.5613,-6.84427,-4003.16,9402.07,2123.59,-0.960608,-5.1226,1.03626
2,0,9178.17,-4142.07,-2558.08,-16.2042,17.1805,-6.98155,-3868.05,9412.77,2053.17,0.135343,-4.9087,2.60405
2,1,9147.1,-4083.38,-2584.53,-16.6304,16.8449,-7.0122,-3790.08,9425.96,2064.93,0.67041,-4.9237,3.42932
3,0,9168.54,-4019.95,-2571.4,-17.1792,16.3118,-6.96655,-3756.54,9385.35,1981.37,1.59908,-5.03033,4.44961
3,1,9179.37,-3970.84,-2509.22,-17.3627,15.4738,-6.99687,-3713.47,9378.08,1973.98,2.16415,-4.87837,5.03001
4,0,9190.12,-3960.01,-2436.2,-17.1955,14.833,-7.37741,-3672.76,9348.22,1928.62,3.26043,-4.54317,6.03498
4,1,9215.24,-3931.33,-2339.27,-16.8146,14.6951,-7.95652,-3595.01,9254.93,1835.29,3.68887,-4.17731,6.52407
5,0,9215.29,-3928.87,-2294.87,-15.9769,14.5582,-8.52062,-3518.37,9263.1,1720.39,4.35863,-3.62885,7.5897
5,1,9263.08,-3931.28,-2328.29,-15.0469,14.2383,-9.48026,-3471.64,9285.89,1711.82,4.52752,-3.47561,7.97248
6,0,9312.19,-3945.62,-2406.06,-14.1323,14.1007,-10.2583,-3419,9429.32,1550.54,4.42089,-3.15605,8.30737
6,1,9312.27,-3943.26,-2431.31,-13.5829,14.0854,-10.7007,-3429.65,9472.67,1515.49,4.11634,-3.23139,8.27768
7,0,9294.32,-3937.27,-2425.34,-13.0648,13.9484,-11.2036,-3459.58,9432.03,1461.77,3.29397,-2.88182,7.9578
7,1,9264.41,-3936.07,-2437.27,-12.9725,13.5829,-11.8893,-3466.8,9476.15,1380.36,2.95748,-2.78955,8.04846
8,0,9299,-3971.92,-2460.01,-13.0335,13.1104,-12.4384,-3481.14,9628.05,1273.87,1.46599,-2.85053,7.8815
8,1,9417.41,-4012.63,-2491.12,-13.3683,13.0791,-12.7436,-3468.03,9676.16,1248.57,0.929959,-2.86585,7.62228
9,0,9480.99,-4040.18,-2513.89,-14.0234,13.6576,-13.1701,-3462.02,9824.35,1188.83,-1.13968,-3.18541,6.6936
9,1,9526.47,-4078.47,-2482.85,-14.4356,13.8871,-13.4753,-3447.68,9823.5,1200.64,-2.24013,-3.24703,6.31114
10,0,9563.59,-4135.9,-2409.87,-14.6948,13.9481,-13.9018,-3503.81,9803.07,1261.66,-4.34106,-2.8665,5.36746
10,1,9564.85,-4198.15,-2360.73,-15.2126,14.283,-14.2527,-3545.77,9755.26,1260.58,-5.27391,-2.83521,4.92402
11,0,9540.93,-4256.81,-2347.52,-15.2289,15.0294,-14.7401,-3588.85,9664.33,1283.24,-6.87235,-2.86585,4.64979
11,1,9515.79,-4282.01,-2367.83,-14.909,15.6091,-15.1063,-3658.24,9642.64,1300.04,-7.56066,-2.7289,4.34492
12,0,9416.56,-4289.21,-2364.29,-14.4519,16.5991,-15.6394,-3734.85,9550.64,1366.98,-8.21542,-2.50032,4.17699
12,1,9266.97,-4211.54,-2378.61,-14.4662,17.6207,-16.1123,-3793.54,9512.18,1402.98,-8.46029,-2.30207,4.00939
13,0,9173.48,-4192.23,-2388.21,-14.7405,17.6833,-16.3565,-3860.56,9538.45,1436.47,-8.65822,-2.07349,4.46558
13,1,9055.05,-4201.81,-2332.05,-14.4975,17.0285,-16.5394,-3842.76,9494.3,1453.27,-8.71952,-2.1035,4.7711
14,0,8928.14,-4139.69,-2259.02,-14.2076,16.0076,-16.6767,-3845.06,9418.89,1452.09,-8.62821,-2.3624,5.5475
14,1,8911.19,-4060.67,-2226.63,-14.055,15.4122,-16.753,-3900.07,9388.88,1465.23,-8.41496,-2.30207,5.88399
15,0,8901.67,-4001.98,-2257.67,-13.9787,15.6701,-17.0422,-3974.27,9320.74,1437.78,-8.07975,-2.66696,7.19287
15,1,8918.36,-3956.48,-2298.38,-14.0547,16.2036,-17.4081,-4000.7,9270.4,1426.94,-7.98781,-2.85053,8.26107
16,0,8914.83,-3906.21,-2318.77,-13.9941,17.0262,-18.0935,-3974.43,9250.02,1419.77,-7.5313,-3.41367,9.84515
16,1,8857.44,-3882.22,-2351.06,-13.8265,17.8039,-18.8405,-3936.12,9235.65,1435.29,-7.28675,-3.73452,10.4418
17,0,8803.54,-3853.51,-2364.27,-13.8261,18.0335,-19.1614,-3897.81,9181.85,1380.36,-7.57566,-3.96309,11.9487
17,1,8752.07,-3841.5,-2358.3,-13.9328,18.0031,-19.8008,-3898.94,9139.91,1388.59,-7.50033,-4.2983,12.8955
18,0,8699.4,-3851.05,-2345.14,-13.5069,17.577,-20.4565,-3769.9,9113.56,1319.34,-7.80424,-4.29894,14.464
18,1,8671.82,-3829.57,-2355.87,-12.7602,16.7543,-21.0206,-3693.11,9129.05,1328.72,-8.01814,-4.31395,15.076
19,0,8645.5,-3796.05,-2349.93,-12.2871,15.5201,-21.4781,-3546.05,9078.91,1351.51,-8.87051,-3.91841,16.0806
19,1,8631.11,-3787.63,-2342.73,-12.1495,14.6808,-21.768,-3482.4,9030.98,1380.21,-9.14635,-4.00875,16.1742
20,0,8675.31,-3848.57,-2309.26,-11.6776,14.3752,-21.9206,-3347.32,8999.84,1449.58,-10.105,-3.5832,16.4171
20,1,8726.8,-3890.54,-2327.11,-10.9309,14.8771,-21.8599,-3339.85,8967.53,1480.79,-10.3355,-3.36898,16.7527
21,0,8778.27,-3915.69,-2343.91,-10.0013,15.974,-21.7836,-3344.71,8851.55,1520.25,-11.3092,-3.58192,16.9662
21,1,8856.04,-3936.04,-2378.58,-8.98003,17.0566,-21.9966,-3310.04,8776.02,1539.46,-11.692,-3.74984,16.7839
22,0,8892.04,-3919.35,-2475.45,-8.39996,17.6366,-22.1645,-3155.81,8651.64,1663.76,-12.1182,-3.82614,16.3878
22,1,8893.27,-3869.11,-2583.2,-7.83617,18.2917,-22.3777,-3061.07,8653.77,1733.35,-12.2105,-3.84147,16.2805
23,0,8913.58,-3843.91,-2659.87,-6.99816,18.6126,-22.6216,-2884.1,8720.79,1846.94,-12.7886,-3.29365,15.824
23,1,8927.96,-3790.11,-2734.08,-5.94657,17.7455,-22.7742,-2833.53,8695.82,1921.28,-13.0791,-2.83585,15.7164
24,0,8930.37,-3708.73,-2738.99,-5.57943,16.5717,-22.8505,-2766.62,8634.77,2070.74,-13.2011,-1.83088,14.2709
24,1,8959.05,-3665.56,-2723.42,-4.77271,15.2762,-23.0485,-2736.59,8615.54,2105.72,-13.2774,-1.52439,13.7348
25,0,9058.3,-3608.15,-2676.79,-3.55352,13.7064,-23.2011,-2759.27,8560.56,2252.68,-13.3383,0.073405,13.2174
25,1,9192.35,-3555.45,-2665.94,-2.13608,13.2014,-23.0948,-2778.45,8585.53,2313.98,-13.2624,0.655408,13.0944
26,0,9370.65,-3518.32,-2695.82,-0.855267,13.9012,-22.9575,-2767.72,8703.94,2450.23,-13.323,2.49678,12.5619
26,1,9497.66,-3499.14,-2787.9,0.272943,15.6528,-22.7442,-2727.06,8789.03,2512.68,-13.3993,3.33801,12.515
27,0,9531.3,-3452.51,-2829.92,1.32485,16.7977,-22.6373,-2758.04,8820.21,2601.16,-13.4603,4.78418,12.1045
27,1,9562.39,-3416.56,-2841.9,2.7723,17.3318,-22.4394,-2700.79,8842.95,2614.49,-13.3843,5.65477,11.723
28,0,9604.28,-3341.23,-2776.2,4.99679,17.3021,-22.1498,-2612.19,8931.42,2763.83,-14.0841,8.34916,11.555
28,1,9622.28,-3250.25,-2717.48,7.0706,17.1192,-21.8449,-2594.11,8955.52,2833.51,-14.2836,9.66383,11.7527
29,0,9656.96,-3123.42,-2691.11,8.56531,17.0732,-21.5857,-2566.63,9015.26,2982.92,-14.4966,12.8757,12.1488
29,1,9642.69,-3009.65,-2686.29,10.272,17.3927,-21.1592,-2585.69,9017.79,3048.98,-14.6188,14.4046,12.2561
30,0,9591.25,-2861.29,-2657.61,11.9643,17.5913,-20.5344,-2627.58,8907.81,3237.84,-14.5429,17.6318,12.8039
30,1,9558.88,-2666.22,-2640.82,12.515,17.8959,-19.8637,-2613.32,8937.44,3327.89,-14.4209,19.1151,13.1248
31,0,9538.52,-2463.9,-2602.56,12.4697,18.8095,-19.193,-2597.72,8790.61,3452.24,-12.8838,22.5095,14.4946
31,1,9508.62,-2284.3,-2561.85,12.2108,20.4549,-18.294,-2620.41,8691.03,3537.35,-12.3781,24.3736,15.1673
32,0,9414.15,-2108.33,-2555.8,12.0428,22.1016,-17.5923,-2567.89,8490.17,3710.73,-10.415,28.2863,17.3439
32,1,9292.06,-1963.42,-2564.18,11.9209,22.8652,-17.3021,-2536.68,8380.99,3781.61,-9.11698,29.8774,18.551
33,0,9203.41,-1879.54,-2609.6,12.0729,23.353,-17.1648,-2504.39,8247.04,3873.67,-6.61988,33.15,21.0934
33,1,9159.06,-1884.2,-2634.8,12.7733,23.7495,-17.3168,-2462.49,8228.83,3855.94,-4.89498,34.8921,22.4837
34,0,9197.24,-1959.53,-2638.41,15.0421,23.7045,-17.6063,-2247.32,8400.96,3847.47,-2.0167,38.0893,24.6459
34,1,9237.98,-2072.02,-2667.09,18.6077,22.9281,-18.0025,-2210.99,8481.42,3878.56,-0.884629,39.5875,25.4875
35,0,9346.79,-2180.98,-2691.06,22.3579,21.8156,-18.2467,-2013.89,8529.27,3855.92,1.44423,42.9517,26.2792
35,1,9484.45,-2347.27,-2609.83,25.7122,21.1135,-18.6123,-1962.02,8585.53,3812.82,2.42338,44.5266,26.6614
36,0,9655.58,-2537.6,-2480.57,29.2635,20.4735,-18.9934,-1878.41,8700.35,3723.12,4.37171,48.4386,27.0269
36,1,9859.04,-2653.85,-2403.85,32.8764,19.2549,-19.268,-1826.81,8805.75,3696.65,5.0913,50.243,26.7689
37,0,10109.2,-2698.23,-2414.51,35.6979,19.359,-19.6488,-1651.1,9023.41,3635.7,5.80672,53.8964,26.6007
37,1,10351,-2730.54,-2379.91,37.1632,20.2426,-19.8018,-1558.69,9091.97,3554.3,6.12789,55.9284,26.6767
38,0,10499.6,-2703.12,-2354.72,39.0825,21.9943,-19.954,-1417.59,9215.07,3487.24,6.66071,62.1999,26.1139
38,1,10547.6,-2673.16,-2340.35,41.095,23.3217,-19.8174,-1377.86,9284.66,3482.35,7.14883,64.9834,25.6864
39,0,10628.9,-2588.27,-2286.55,42.5897,24.6476,-19.4822,-1400.57,9276.37,3435.77,8.03217,72.5481,24.9706
39,1,10704.4,-2551.04,-2316.31,44.1594,26.8717,-19.0707,-1436.47,9205.82,3444.02,8.70355,76.2326,25.2126
40,0,10678.2,-2579.7,-2303.27,46.6275,30.6956,-19.2373,-1274.02,9194.91,3309.04,10.4849,83.905,25.4572
40,1,10377,-2454.3,-2143.08,48.7323,32.2248,-19.3293,-1259.27,9151.92,3228.64,11.2648,87.7567,25.3965
41,0,10216.2,-2315.36,-2031.59,50.303,30.0955,-19.4206,-1248.62,9071.74,3106.67,14.4001,98.5033,26.0506
41,1,10183.8,-2122.74,-2043.39,51.1729,28.7358,-19.7251,-1215.1,8992.72,3055.03,16.1573,103.458,26.3262
42,0,10176.6,-2057.84,-2011.2,51.5697,28.9018,-19.8627,-1310.64,8855.16,2881.72,21.0589,115.559,27.848
42,1,10214.8,-2039.89,-2036.2,52.1485,29.4809,-19.6498,-1406.49,8822.62,2724.78,23.0785,121.049,28.9015
43,0,10181.4,-2002.81,-2031.51,53.0019,31.5972,-19.3906,-1566.76,8878.8,2415.04,27.7512,130.624,31.1397
43,1,10008,-2017.07,-1978.89,52.8209,34.493,-19.4206,-1667.47,8850.25,2293.7,30.0444,134.709,32.0575
44,0,9872.64,-2043.42,-1927.4,52.0438,36.4309,-19.5425,-2036.85,8963.66,1921.98,35.2352,143.507,33.3211
44,1,9719.48,-2070.95,-1840.08,51.6467,36.4641,-19.208,-2204.97,9042.84,1807.61,37.3011,147.392,34.176
45,0,9620,-2106.85,-1811.22,52.0876,35.4285,-18.5376,-2056.91,9112.23,1602.09,40.6346,154.729,36.4749
45,1,9525.46,-2112.89,-1777.75,53.2148,34.4828,-17.8972,-1908.34,9149.41,1460.59,41.9812,158.123,37.5604
46,0,9493.02,-2075.84,-1745.41,53.8105,33.3096,-17.3787,-1504.21,9327.51,1189.16,43.9906,165.552,39.6916
46,1,9522.88,-2153.43,-1723.85,54.4046,32.9422,-16.617,-1332.46,9385.27,1081.03,44.7255,169.068,40.4572
47,0,9540.88,-2283.89,-1683.19,55.8971,33.3377,-15.7177,-961.896,9403.2,825.237,45.3039,179.175,42.2682
47,1,9514.61,-2339.1,-1599.45,58.3045,33.293,-14.803,-824.834,9380.53,742.203,45.6248,183.991,42.7746
48,0,9501.4,-2364.24,-1496.51,60.1047,32.7752,-14.2536,-725.607,9284.87,462.573,45.899,194.556,43.7939
48,1,9550.38,-2345.16,-1459.28,62.2682,31.5263,-13.7355,-701.488,9234.47,372.292,46.2039,199.388,43.8725
49,0,9603.08,-2282.97,-1437.75,64.2354,30.839,-13.1411,-840.125,9205.74,140.471,46.3262,207.593,43.6892
49,1,9636.62,-2250.57,-1367.2,64.8778,30.7774,-12.9422,-918.12,9184.18,47.9093,46.2958,212.1,43.1107
50,0,9615.17,-2317.46,-1237.99,65.5325,31.4318,-12.4247,-1086.69,9104.08,-139.739,46.3718,218.268,41.9225
50,1,9551.76,-2266.24,-1209.06,65.8687,30.9159,-11.7083,-1200.58,9042.96,-265.643,46.4938,220.898,41.0832
51,0,9598.24,-2197.95,-1232.98,65.4125,29.849,-11.3874,-1493.5,9134.89,-480.894,45.9766,224.628,39.0886
51,1,9709.53,-2154.83,-1261.71,64.7418,30.0297,-11.0676,-1606.47,9176.96,-585.313,45.9753,226.386,38.4756
52,0,9707.35,-2037.65,-1294.02,63.6145,31.3242,-10.8843,-1735.58,9376.54,-720.44,44.7584,227.727,37.4256
52,1,9599.72,-1987.21,-1288.11,62.0601,32.6204,-10.5341,-1851.78,9475,-822.301,43.7358,228.429,36.7993
53,0,9438.17,-2007.49,-1243.86,61.3725,32.9725,-10.4268,-2242.72,9546.77,-943.139,41.254,227.761,36.616
53,1,9294.47,-2033.84,-1137.41,61.0066,32.303,-10.6551,-2426.42,9549.3,-1041.36,39.9857,227.181,36.2658
54,0,9228.51,-2029.1,-1070.27,60.5951,31.1602,-10.96,-2704.99,9593.48,-1109.63,36.7584,223.786,36.1586
54,1,9171.07,-2029.08,-997.292,60.2596,29.8037,-11.4931,-2795.22,9613.91,-1146.78,35.1383,221.953,36.2955
55,0,9087.31,-2008.77,-901.549,60.046,28.3556,-12.1485,-2939.83,9668.89,-1154.01,31.0587,216.412,36.2045
55,1,9064.45,-1937.02,-872.693,59.0413,26.8465,-13.0475,-3027.4,9715.62,-1193.44,28.98,213.721,36.2499
56,0,9046.52,-1958.38,-853.564,57.7609,25.5047,-14.1601,-3212.72,9657.13,-1156.49,25.0218,207.024,35.6414
56,1,8997.49,-1929.8,-797.357,56.8912,25.046,-15.0903,-3277.65,9602,-1204.17,23.2783,203.874,35.4268
57,0,8907.76,-1879.51,-715.98,55.8856,25.1826,-15.944,-3495.16,9408.34,-1233,19.0468,193.95,33.829
57,1,8764.18,-1928.42,-597.523,54.7424,25.7004,-16.2042,-3606.8,9368.47,-1228.24,17.3177,189.408,32.9275
58,0,8642.02,-1988.32,-507.672,54.1773,26.5384,-16.0826,-3684.56,9243.05,-1222.25,12.8126,177.505,30.8875
58,1,8553.39,-2001.55,-542.192,54.131,27.9096,-15.7627,-3684.71,9126.82,-1188.78,10.9306,172.061,30.0613
59,0,8468.4,-1990.8,-621.188,54.1007,28.8862,-15.8077,-3526.92,9020.3,-1066.81,7.32318,161.299,28.2653
59,1,8432.4,-1987.19,-659.571,54.3136,29.0397,-16.0819,-3476.38,8935.26,-1029.51,5.61072,156.314,27.5003
60,0,8370.23,-1994.36,-679.928,55.075,27.8375,-16.5238,-3275.62,8751.1,-957.807,1.91167,144.928,25.6586
60,1,8365.32,-2018.27,-645.307,55.5788,26.7999,-17.3768,-3165.21,8706.5,-951.664,0.275193,139.728,24.8784
61,0,8391.64,-2039.83,-596.219,56.4012,26.0832,-18.1698,-2896.23,8534.44,-936.171,-3.028,129.712,23.8128
61,1,8441.88,-2026.72,-573.43,57.0572,26.1886,-18.9471,-2749.85,8486.23,-885.93,-4.86144,125.246,23.293
62,0,8420.47,-1970.52,-544.725,57.606,26.5544,-19.9681,-2560.9,8453.99,-878.659,-7.45018,117.604,21.9991
62,1,8379.76,-1942.91,-500.451,57.47,26.692,-20.883,-2482.82,8434.79,-898.991,-8.68823,114.224,21.1745
63,0,8345.03,-1867.6,-423.887,57.1955,27.2095,-21.5084,-2328.62,8378.6,-908.593,-11.4436,106.279,18.6627
63,1,8146.61,-1789.76,-136.936,56.9059,27.2411,-21.8746,-2275.69,8303.19,-949.232,-12.7736,102.715,17.7289
64,0,8118.67,-1743.03,66.8359,55.825,24.6387,-22.1338,-2109.58,8305.45,-944.544,-14.9812,95.4391,15.1721
64,1,8220.33,-1726.23,87.4199,54.5748,21.9088,-22.5147,-2007.62,8337.76,-945.697,-15.762,91.8772,13.9184
65,0,8447.59,-1759.68,77.8179,54.0401,23.0609,-22.7133,-1801.97,8303.17,-980.369,-17.5274,86.3048,11.8175
65,1,8589.07,-1775.29,83.7844,53.5069,26.3976,-22.7896,-1716.68,8252.88,-973.275,-18.1554,83.7058,10.8846
66,0,8614.34,-1837.44,86.1913,52.9428,30.2388,-22.7136,-1598.33,8197.82,-967.258,-19.5859,77.8908,8.69272
66,1,8539.05,-1839.98,157.891,52.531,34.1412,-22.6373,-1500.07,8151.12,-949.332,-20.2436,75.5345,8.12476
67,0,8320.19,-1783.77,232.149,51.663,36.948,-22.622,-1321.88,8118.78,-979.165,-21.6288,71.4855,7.48596
67,1,8133.32,-1709.56,277.677,50.7177,37.6066,-22.622,-1247.42,8161.75,-969.69,-22.1188,69.6351,7.1648
68,0,8002.78,-1647.29,344.664,49.6661,37.4394,-22.3937,-1193.59,8078.21,-930.204,-23.458,67.123,7.04285
68,1,7865.14,-1672.28,453.544,49.299,37.1498,-22.1345,-1127.76,8005.08,-919.373,-24.1764,65.7024,7.05785
69,0,7746.58,-1728.54,598.349,49.9074,36.0689,-21.7536,-1082.23,8006.19,-883.523,-25.4552,63.9357,7.9862
69,1,7675.89,-1725.05,672.708,50.3502,34.4535,-21.1898,-1029.58,7993.07,-849.979,-26.1276,63.2321,8.61225
70,0,7675.79,-1765.64,731.347,50.6551,32.5179,-20.854,-853.817,8116.12,-753.134,-27.4521,61.7556,10.2717
70,1,7770.22,-1784.87,793.596,51.0969,31.0992,-20.5188,-742.303,8112.83,-676.444,-28.2311,61.0979,11.0666
71,0,7868.42,-1789.66,941.885,51.4478,31.2036,-19.9247,-640.594,8179.64,-538.91,-29.3124,59.8953,11.4324
71,1,7891.29,-1798.03,1176.42,53.0309,30.6567,-19.2539,-577.066,8246.76,-462.144,-29.6342,59.0557,11.57
72,0,7988.08,-1682.13,1440.96,54.5866,28.8747,-18.9941,-407.292,8410.57,-295.955,-29.3146,57.1677,11.2202
72,1,8185.48,-1635.25,1759.3,55.5325,27.258,-18.5982,-322.077,8504.13,-176.094,-29.253,56.1289,10.9606
73,0,8441.6,-1650.77,2076.56,57.0556,26.4794,-17.6995,-178.601,8654.8,22.4358,-28.4466,53.0996,9.91031
73,1,8691.83,-1689.05,2394.98,58.0022,26.3415,-16.9369,-94.6404,8711.28,120.838,-27.9881,51.8146,9.29927
74,0,9011.32,-1796.68,2672.78,58.9012,26.3415,-15.7183,-24.043,8797.35,334.835,-26.8769,49.2422,8.20299
74,1,9356.09,-1943.89,2911.05,59.7855,27.2545,-14.1789,-4.7884,8835.78,459.586,-26.2961,48.0494,7.59195
75,0,9557.45,-2032.59,3029.75,61.0044,28.5653,-12.6392,34.6465,8972.04,650.92,-25.3521,46.3291,7.18044
75,1,9828.99,-2139.06,3103.99,62.9849,30.9111,-11.7083,83.734,9059.58,755.289,-25.0153,45.3362,7.02752
76,0,10036.3,-2197.83,3079.02,65.8192,35.4201,-11.0679,70.6731,9382.33,957.353,-23.4022,43.3569,7.69697
76,1,9886,-2189.53,2924.76,67.4071,40.3594,-10.6407,15.6443,9496.58,1037.85,-22.4093,42.3331,8.10944
77,0,9458.93,-2183.51,2791.79,67.0895,40.4441,-10.5944,-28.68,9604.16,1122.74,-19.6996,39.3648,9.54028
77,1,9136.63,-2169.17,2372.14,65.4294,35.9067,-11.0663,-52.6472,9649.81,1159.97,-18.2024,38.0494,10.4565
78,0,9019.05,-2203.79,1721.15,63.6608,30.4492,-11.4021,3.48406,9735.88,1167.17,-15.0205,34.5486,12.7097
78,1,8930.5,-2317.41,1231.17,63.5056,24.292,-11.2808,23.942,9756.38,1164.79,-13.5679,33.0038,13.6429
79,0,8910.01,-2282.99,813.38,63.8258,19.6243,-10.7174,321.497,9847.19,1106.22,-10.1277,28.9398,16.5956
79,1,9111.98,-2159.75,672.834,62.6242,14.1694,-9.54445,442.889,9803.19,1097.72,-8.56788,26.8459,17.9718
80,0,9261.82,-2154.73,807.784,60.7343,10.1265,-8.15734,966.349,10079.1,1029.63,-6.08642,24.3485,21.351
80,1,9640.83,-2089.07,996.939,59.9244,8.03571,-6.52664,1254.36,10212.4,984.055,-4.80271,23.0954,22.9412
81,0,10142.4,-1873.8,1162.18,57.9454,8.9915,-4.22586,1608.35,10438.3,969.664,-3.90373,22.1964,24.6619
81,1,10540,-1652.28,1399.06,54.3498,11.8707,-1.22369,1714.25,10521.3,978.012,-3.47593,22.1795,25.2742
82,0,10723.5,-1416.49,1730.54,50.295,13.8242,1.49053,1904.25,10507,1053.32,-2.86682,22.1648,24.6201
82,1,10812.1,-1068.32,1966.58,45.7532,14.8464,3.7776,1968.03,10457.9,1073.81,-2.50032,21.8146,24.299
83,0,10788.3,-713.926,2069.69,38.8211,15.8827,5.60751,1935.77,10393.3,1140.72,-1.11513,21.616,22.9901
83,1,10677.1,-559.166,2198.88,30.8643,16.0672,7.08657,1899.84,10355,1188.68,-0.488126,21.631,22.424
84,0,10508.4,-575.736,2372.41,26.422,15.854,7.66729,1733.68,10207.9,1268.8,1.30792,20.779,21.0998
84,1,10351.5,-567.464,2479.09,22.049,14.6514,8.15477,1677.14,10114.4,1292.87,2.16415,20.2139,20.6251
85,0,10260.4,-463.448,2503.13,17.2929,12.6248,8.70355,1589.9,9951.76,1339.47,4.21911,19.6198,19.8337
85,1,10185,-312.652,2479.24,10.4824,11.3884,9.02407,1518,9891.66,1315.68,5.24326,19.2686,19.4819
86,0,10126.3,-319.544,2549.69,3.34765,10.702,9.31363,1410.35,9891.64,1327.54,7.64843,18.203,19.1773
86,1,10077.3,-557.458,2565.41,-3.16238,10.914,9.4359,1429.25,9989.64,1346.72,9.09941,17.7746,19.131
87,0,10104.7,-1090.95,2755.39,-6.71911,8.48011,9.31427,1901.39,10796.5,1210.51,10.9727,17.333,19.1007
87,1,10655.6,-1427.82,2798.86,-7.10414,3.87854,9.40525,2108,11235.7,1149.24,11.9809,17.0125,18.7202
88,0,11646.4,-1309.94,2160.68,-7.24046,6.09146,9.45122,2032.84,11130.9,1079.9,13.595,15.8099,15.6759
88,1,12291.2,-715.609,1174.52,-10.2844,15.2907,9.31427,1876.08,10986,1036.73,14.4049,15.4725,14.1473
89,0,12247.8,130.508,362.496,-14.3391,21.9138,9.2683,736.949,9930.56,921.957,17.3426,13.7074,9.35263
89,1,11682.2,942.281,-396.429,-23.2179,28.299,9.04004,261.157,9432.23,821.325,18.6579,12.6989,7.66793
90,0,10952.1,1214.92,-811.243,-36.947,29.7261,8.05039,-294.77,9355.39,502.109,21.0174,10.5067,7.62195
90,1,10585.1,1035.85,-882.27,-52.2662,23.106,6.00915,-555.303,9565.65,319.771,21.8596,9.58882,7.80456
91,0,10582.3,343.468,-866.726,-61.9563,12.88,3.82903,-709.66,10574.7,-91.5019,21.4337,7.41223,5.35503
91,1,11010.2,-364.239,-990.972,-64.8155,6.75908,2.47096,-848.574,10964.1,-227.437,21.2348,6.66167,3.64482
92,0,11448.5,-868.502,-1235.05,-64.1177,5.97497,1.82991,-1651.84,11179.4,-473.623,19.4391,4.31812,-5.50271
92,1,11850.8,-1153.7,-1689.63,-62.9588,8.9736,1.57036,-2050.39,11196.6,-619.985,18.9784,3.21703,-9.75385
93,0,12016.4,-1405.06,-2328.66,-62.7286,15.5542,1.20483,-3115.46,10779.4,-788.631,17.3353,0.964141,-15.6155
93,1,11851.6,-1817.78,-2829.37,-63.8852,22.3694,0.595396,-3718.93,10594.4,-884.576,16.6313,0.1526,-17.6216
94,0,11502.2,-2454.34,-3054.8,-63.3096,26.3526,-0.394896,-4455.67,10552.5,-1136.83,15.9919,-1.24759,-18.0938
94,1,11158.6,-3087.71,-3086.14,-61.0248,27.0885,-1.49246,-4723.67,10605,-1241.35,15.5188,-2.07253,-18.0035
95,0,10742.2,-3808.18,-2918.82,-54.4312,26.6167,-3.64,-4887.5,11052.1,-1554.5,14.4682,-3.19945,-18.2007
95,1,10483.3,-4277.95,-2777.43,-44.1761,22.0809,-6.36826,-4922.5,11284.9,-1724.9,13.9181,-3.71919,-18.2927
96,0,10326.4,-4719.56,-2816.66,-30.857,11.8447,-9.17314,-4781.46,11738,-1858.9,12.1067,-4.1457,-18.7036
96,1,10544.8,-4872.14,-3140.66,-15.0369,-0.456095,-11.0193,-4699.88,11937.4,-1932.06,11.2048,-4.17699,-18.9328
97,0,11153.7,-4450.39,-3668.36,-0.460467,-8.75617,-11.6307,-4806.15,11924.4,-1969.19,9.72802,-3.09636,-19.4656
97,1,11831.3,-3537.59,-4105.54,7.97913,-10.8987,-11.7986,-4899.64,11866.9,-1952.52,9.13134,-2.7439,-19.6342
98,0,12315.2,-2477.02,-4480.26,10.2733,-8.34316,-11.5097,-5014.48,11557.3,-1933.34,7.80713,-0.963499,-18.4929
98,1,12553.8,-1626.69,-4644.62,8.70741,-3.37605,-11.1285,-5068.49,11433.6,-1958.41,7.19545,-0.137597,-17.5163
99,0,12533.8,-1137.76,-4568.31,4.82286,4.4703,-10.9453,-5093.63,11145.5,-1878.41,5.12549,3.27158,-14.9432
99,1,12153.6,-924.364,-4190.46,2.16737,10.0702,-11.0059,-5074.55,11037.3,-1844.74,4.26862,5.02937,-13.6898
100,0,11545.7,-853.59,-3641.15,-0.818833,15.739,-11.5388,-4980.09,10806.6,-1689.38,2.70082,8.3482,-11.0714
100,1,11210,-907.289,-3301.94,-3.24414,17.0735,-12.8486,-4865.17,10705.7,-1616.12,2.14947,10.0294,-10.1983
101,0,10994.5,-1018.58,-3061.3,-5.01308,15.6883,-14.4643,-4725.15,10478.6,-1383.05,1.03851,13.3482,-8.26557
101,1,10977.4,-1227.91,-2927.04,-6.24856,15.3352,-15.7911,-4666.34,10383.7,-1257.04,0.396824,14.7098,-7.85021
102,0,11028.8,-1488.84,-2736.86,-5.83962,16.8724,-16.691,-4519.3,10200.8,-1028.68,-0.516847,17.1453,-7.33336
102,1,11038.5,-1674.54,-2527.35,-4.42282,19.7063,-17.3468,-4415.01,10080.9,-903.906,-0.883986,18.2007,-7.36241
103,0,10919,-1825.38,-2249.75,-3.15702,23.0443,-18.0478,-4238.01,9902.7,-792.645,-1.91897,19.7992,-7.30207
103,1,10753.8,-1837.59,-2016.2,-1.81587,25.5459,-18.9621,-4131.29,9824.65,-700.411,-2.57566,20.5788,-7.3474
104,0,10629.2,-1771.81,-1859.28,-1.60037,27.1476,-19.9377,-4066.63,9665.66,-540.138,-3.23074,21.5838,-7.92587
104,1,10508.3,-1623.5,-1806.46,-2.14851,27.8196,-20.6851,-4072.5,9539.83,-475.281,-3.64289,21.8446,-8.56627
105,0,10376.6,-1397.34,-1771.76,-3.45836,29.2051,-21.5384,-4040.28,9374.74,-325.864,-3.90212,22.2858,-9.35864
105,1,10271.3,-1249.92,-1751.38,-5.71317,31.095,-22.0879,-4023.46,9291.96,-281.312,-3.96342,22.3477,-9.84708
106,0,10071.5,-1074.06,-1625.88,-8.30448,31.9962,-22.2864,-4004.33,9272.76,-142.701,-4.37428,21.9975,-10.1216
106,1,9869.15,-834.714,-1373.45,-10.9264,32.0429,-22.454,-4012.66,9220.16,-117.278,-4.46655,22.0729,-10.2286
107,0,9806.67,-537.908,-1015.65,-13.8679,33.1991,-22.9109,-4089.17,9070.67,79.8462,-4.40557,21.0842,-10.2439
107,1,9715.82,-262.512,-912.203,-16.7798,35.4236,-23.5966,-4131.16,8954.44,137.686,-4.57285,20.5948,-10.6091
108,0,9504.11,-153.305,-1031.69,-18.5956,36.9953,-24.0088,-4144.35,8919.62,295.4,-4.63415,18.7684,-10.0469
108,1,9123.67,-214.149,-1072.6,-19.6938,36.9062,-23.9028,-4161.1,8855.06,371.063,-4.5885,18.1251,-9.49752
109,0,8729.76,-339.8,-972.223,-20.3499,34.577,-23.4306,-4011.76,8805.92,525.269,-4.39057,15.7359,-8.70548
109,1,8479.34,-423.685,-816.637,-21.0356,32.1524,-23.1101,-3942.08,8756.86,624.798,-4.19232,14.8934,-8.38431
110,0,8527.97,-662.803,-704.021,-22.8173,27.705,-22.7749,-3832.1,8682.68,724.101,-4.00939,12.5042,-7.12108
110,1,8744.5,-999.119,-683.538,-24.4037,25.0786,-21.9982,-3732.67,8590.52,780.459,-3.91776,11.3878,-6.52471
111,0,8870.4,-1248.29,-738.517,-25.5778,26.9624,-20.5814,-3485.16,8451.73,868.956,-3.40028,9.27183,-4.81997
111,1,8924.33,-1596.42,-853.363,-25.4428,31.6699,-18.7221,-3427.27,8370.21,866.751,-3.00345,8.14105,-4.04004
112,0,8942.33,-1795.47,-1029.25,-24.1636,37.0964,-16.7709,-3135.73,8416.71,910.899,-2.0138,6.48131,-1.7265
112,1,8804.92,-1847.1,-1238.72,-22.8675,40.9865,-15.0023,-2960.56,8437.17,907.44,-1.75297,5.5191,-0.793005
113,0,8611,-1770.66,-1332.3,-21.6936,41.6923,-13.5232,-2738.12,8544.72,885.88,-1.12917,4.08762,0.226973
113,1,8518.65,-1646.18,-1205.73,-20.4894,39.2725,-12.2577,-2639.66,8627.42,898.991,-1.09724,3.47593,0.868341
114,0,8547.22,-1595.77,-975.959,-18.8134,36.1474,-11.1295,-2381.47,8660.99,883.498,-0.93028,1.72553,0.97561
114,1,8694.31,-1507.3,-839.3,-16.7102,34.4072,-9.84933,-2294.85,8677.76,887.033,-0.990613,0.93028,0.747353
115,0,8735.25,-1307.54,-774.594,-15.7933,33.9484,-8.82743,-2264.97,8591.75,904.983,-0.899632,-1.38326,0.533778
115,1,8687.44,-1199.58,-596.446,-15.3968,33.4916,-7.22802,-2291.19,8482.8,956.402,-0.671053,-2.45371,0.350851
116,0,8657.46,-1111.04,-444.295,-15.7157,32.6689,-5.2618,-2235.11,8284.24,986.386,-0.335848,-5.07181,0.487484
116,1,8555.85,-936.398,-268.403,-17.3145,31.4347,-3.29525,-2179.98,8201.38,1030.63,0.121309,-6.00594,0.822689
117,0,8419.39,-742.455,-134.227,-20.3157,29.3628,-1.48099,-1986.31,8132.01,1079.72,0.609114,-8.22786,1.64506
117,1,8294.87,-615.449,12.96,-23.7607,26.8631,0.515563,-1892.67,8165.33,1070.25,0.823011,-9.10037,1.9359
118,0,8250.44,-474.254,142.297,-27.8298,24.1196,2.45178,-1584.29,8111.68,1102.46,1.44713,-9.00939,3.41207
118,1,8299.41,-278.005,179.553,-32.372,22.5929,4.34203,-1391.2,8044.59,1115.7,1.60069,-8.78081,3.99374
119,0,8464.44,-110.335,67.2394,-37.4626,22.9106,5.95836,-1144.81,8073.17,1108.53,2.13318,-7.07606,5.34828
119,1,8757.56,-46.7311,-118.255,-42.1131,25.8032,7.39145,-1008.07,8066.1,1120.46,2.13447,-5.88527,6.52311
120,0,9032.98,97.9227,-318.164,-44.5556,29.2182,8.01781,-964.901,8248.89,1082.25,2.62099,-4.52945,6.8596
120,1,9262.88,179.502,-537.202,-48.8347,35.3566,8.70323,-972.021,8280.4,1078.57,2.85053,-3.82678,6.70764
121,0,9343.33,148.516,-633.197,-53.5915,43.0232,9.1307,-984.004,8316.18,1031.99,4.2354,-3.39995,5.00289
121,1,9190.43,162.755,-624.924,-58.3169,50.3412,9.07037,-1025.85,8278.05,1043.82,4.87773,-3.47529,4.17731
122,0,8946.27,132.948,-603.364,-64.0317,55.1928,8.79614,-1039.08,8310.19,956.654,6.12596,-4.54092,2.16801
122,1,8774.94,-16.5199,-616.475,-69.7487,57.9999,8.21735,-1010.4,8337.79,931.332,6.75265,-5.15196,1.06788
123,0,8613.36,-184.139,-568.717,-74.7194,58.6432,7.50097,-1097.57,8298.38,833.359,7.8336,-6.97866,-0.546212
123,1,8445.77,-321.85,-418.021,-78.882,56.8325,6.99752,-1137.23,8280.35,785.323,8.44464,-7.78924,-1.21919
124,0,8403.65,-404.532,-172.736,-82.8454,53.0696,6.79894,-1257.95,8203.86,669.375,9.81483,-10.8332,-3.01524
124,1,8536.29,-493.079,52.3951,-86.3067,50.1405,6.8596,-1286.9,8171.42,614.144,10.4722,-12.0575,-3.59756
125,0,8731.39,-599.602,220.065,-88.1385,49.5122,6.98155,-1433.86,8190.53,446.802,11.1423,-15.6037,-4.6932
125,1,8799.86,-630.866,405.559,-90.0734,50.7448,7.14915,-1444.97,8258.69,299.439,11.2502,-17.2248,-5.06098
126,0,8666.06,-657.164,609.053,-92.025,52.2542,7.24078,-1410.22,8336.51,99.6557,10.9,-20.5737,-6.33922
126,1,8529.5,-658.418,700.235,-93.687,51.435,6.75393,-1406.59,8388.03,75.3606,10.6101,-21.9203,-6.7683
127,0,8262.81,-627.331,756.492,-96.1397,47.2475,5.67234,-1368.36,8470.56,-100.229,9.4075,-25.3904,-7.54437
127,1,7939.6,-667.894,774.518,-100.39,39.6757,4.31587,-1423.23,8473.12,-270.356,8.61353,-27.0266,-7.98749
128,0,7789.66,-691.912,625.151,-107.064,28.8872,3.05039,-1503.46,8390.61,-385.328,7.97345,-30.619,-9.05312
128,1,8017.74,-751.678,395.358,-115.613,17.6214,1.87653,-1612.34,8272.13,-501.428,7.62228,-32.3161,-9.57285
129,0,8668.41,-774.518,277.828,-124.394,11.5302,1.03755,-1889.79,8075.93,-707.178,7.83489,-36.8369,-10.9124
129,1,9453.66,-840.251,229.894,-132.566,14.2616,-0.0137189,-2015.84,7973.97,-758.974,8.15509,-38.8862,-11.5241
130,0,9864.94,-1066.26,148.567,-137.906,22.7161,-0.943999,-2073.3,8069.46,-946.573,9.4643,-45.0657,-12.4984
130,1,9788.95,-1339.2,20.5334,-139.344,27.7241,-1.29549,-2188.12,8078.09,-1031.86,9.96936,-47.8493,-12.9875
131,0,9614.14,-1490.25,-147.01,-138.675,30.4693,-1.47842,-2049.74,8323,-1196.82,11.5065,-53.8162,-14.0075
131,1,9546.92,-1575.28,-284.746,-138.552,30.3672,-2.43742,-1970.47,8476.55,-1267.7,12.1492,-56.2339,-14.7401
132,0,9509.82,-1892.09,-516.795,-139.556,28.8437,-4.1591,-1855.7,8911.69,-1409.95,13.1995,-60.4198,-15.928
132,1,9417.74,-2171.23,-655.885,-140.38,26.9995,-4.6798,-1830.35,9053.67,-1548.88,13.4453,-62.5444,-16.5544
133,0,9074.58,-2224.23,-382.398,-141.599,22.3245,-4.83208,-1819.62,9166,-1676.97,13.8255,-66.1375,-18.5181
133,1,8717.73,-2189.55,158.439,-144.827,13.4735,-5.69978,-1829.14,9289.35,-1727.39,13.8721,-67.8039,-19.2377
134,0,8608.4,-2243.25,449.858,-148.304,4.90397,-6.47778,-1672.63,9436.54,-1823.03,13.5219,-69.9965,-19.8618
134,1,8603.56,-2497.94,282.894,-151.383,-0.466702,-6.50939,-1593.39,9515.69,-1845.94,13.2777,-70.9447,-20.061
135,0,8436.27,-3070.89,228.615,-154.234,-2.17884,-5.8243,-1509.68,9575.53,-1897.31,13.8708,-72.4975,-19.5132
135,1,8103.66,-3717.35,320.672,-155.761,-2.83456,-5.15324,-1495.16,9544.57,-1890.27,14.268,-73.2617,-19.101
136,0,7867.6,-4380.51,292.193,-158.639,-3.80953,-4.36088,-1305.18,9514.58,-1896.18,15.8814,-75.271,-17.3809
136,1,7751.35,-4835.78,183.314,-160.288,-4.40493,-3.87243,-1218.69,9455.99,-1865.15,16.6307,-76.3255,-16.3728
137,0,7642.44,-5480.56,-477.731,-157.216,-4.55785,-2.18269,-1017.88,9186.99,-1853.11,18.7616,-78.746,-12.9783
137,1,7624.32,-5826.01,-1402.95,-152.765,-2.74711,-0.185495,-856.097,9041.81,-1849.53,19.7251,-79.6035,-11.2968
138,0,7351.88,-6009.22,-1843.18,-149.592,2.06579,1.08095,-536.805,8738.14,-1841.15,21.4605,-80.7298,-6.25851
138,1,6875.62,-5905.56,-1835.29,-142.694,4.75385,2.93927,-429.778,8617.97,-1863.84,22.6513,-81.3715,-2.76244
139,0,6320.25,-5580.17,-1774.17,-132.073,4.22425,4.06908,93.6574,8197.27,-1786.23,24.3267,-81.783,3.52664
139,1,5725.33,-4867.31,-1980.82,-119.712,-0.662708,4.77046,397.211,8062.47,-1818.29,25.0453,-81.7533,6.70507
140,0,5656.16,-3802.3,-2394.8,-112.37,-9.72762,5.30424,816.958,7733.85,-1784.97,25.898,-81.5247,11.9732
140,1,5916.86,-2948.26,-2509.12,-110.017,-13.6256,5.51813,860.86,7472.57,-1695.22,26.2499,-81.5548,13.9171
141,0,5794.32,-2051.88,-2268.93,-105.587,-13.3549,6.1879,1033.94,6880.69,-1613.79,26.9653,-81.5854,15.2113
141,1,5547.68,-1104.97,-2274.34,-101.788,-15.2097,6.35679,1112.09,6616.52,-1576.61,27.1951,-81.4941,15.7467
142,0,5336.94,-648.016,-2392.85,-101.432,-19.0189,4.83497,1495.71,6499.22,-1484.56,26.4191,-80.9613,15.9296
142,1,4741.48,-194.598,-2498.22,-100.17,-27.9587,3.41624,1637.61,6576.68,-1437.75,25.9759,-80.6558,15.8387
143,0,4275.34,434.863,-2957.27,-99.9691,-43.8944,2.42499,2076.21,6809.96,-1180.78,23.3125,-79.6055,13.7384
143,1,4302.17,854.289,-3586.86,-101.796,-63.51,1.51035,2239.74,6886.9,-1039.18,22.1651,-78.9944,12.6379
144,0,4888,1071.17,-4079.14,-105.665,-81.1974,1.50875,2478.79,7123.54,-700.865,17.8732,-76.5742,7.98051
144,1,5902.64,1122.87,-4465.9,-111.79,-94.7854,1.76797,2664.56,7334.4,-432.437,15.6417,-75.1079,5.86995
145,0,7397.15,834.89,-4852.53,-118.589,-104.364,1.05319,3281.43,8214.24,-9.02855,11.2116,-71.6825,1.79036
145,1,9260.61,393.254,-5320.46,-120.67,-107.346,0.0622592,3472.8,8569.91,251.152,8.90405,-70.1989,-0.196967
146,0,10907.1,69.7972,-5569.89,-119.104,-104.518,-0.319881,2611.19,7731.2,927.841,4.71719,-65.9067,-8.32454
146,1,11704.5,-254.535,-5361.06,-110.913,-94.5736,-0.959323,2186.15,7287.02,1236.44,3.32333,-63.9644,-12.1626
147,0,11816.6,-504.887,-5058.14,-94.7039,-86.3811,-4.26284,846.23,6672.43,1874.79,1.69488,-61.1784,-19.8196
147,1,11456.9,-542.318,-4877.18,-69.3962,-86.0037,-9.55047,56.8875,6350.85,2239.49,1.11289,-60.1223,-23.0322
148,0,10941,116.169,-5224.67,-47.6936,-96.4611,-15.0843,-879.63,6166.51,2763.28,0.45844,-58.4175,-26.534
148,1,10836.1,1152.57,-5607.97,-41.6939,-109.039,-18.7916,-1189.86,6173.35,3039.23,0.106948,-57.7746,-27.7133
149,0,11272.3,1849.97,-5367.18,-52.2065,-120.26,-21.6732,-1413.4,7087.66,3462.54,-1.03466,-55.6896,-29.2961
149,1,12082.4,1669.33,-4727.09,-65.0753,-127.279,-22.3324,-1477.24,7549.83,3670.17,-1.58505,-54.5892,-30.4562
150,0,12686.2,1080.63,-4122.37,-71.3207,-127.304,-18.7563,-1618.23,8769.11,4073.07,-3.60936,-52.5339,-36.925
150,1,12849.6,704.273,-3728.21,-75.0259,-123.177,-12.6763,-1712.97,9292.86,4256.79,-4.22264,-51.662,-40.0744
151,0,12582,373.949,-3453.97,-77.4212,-120.262,-8.75401,-2438.44,9391.16,4501.9,-4.43558,-51.0832,-47.092
151,1,12154.8,122.394,-3257.54,-81.3507,-116.408,-3.69656,-2952.76,9326.76,4574.13,-4.10133,-50.9603,-50.3793
152,0,11852.8,-29.7576,-3195.09,-86.563,-110.055,1.76124,-4432.82,8926.24,4533.49,-0.265639,-55.1299,-55.2512
152,1,11183.2,-298.86,-3235.68,-92.5377,-101.491,6.39667,-5074.2,8725.8,4495.16,1.24952,-57.3461,-56.9966
153,0,10119.4,-586.214,-3154.53,-96.231,-93.227,10.7869,-5592.05,7929.75,4339.75,4.71968,-62.6436,-56.1145
153,1,8980.95,-806.582,-2849.58,-93.847,-91.9043,12.9859,-5771.18,7549.13,4272.48,6.17322,-64.8315,-55.2905
154,0,8376.67,-520.134,-2851.33,-90.2028,-97.5211,11.4363,-5220.34,7253.68,4097.97,8.38046,-65.8674,-49.3242
154,1,8692.6,33.9415,-3484.9,-89.5119,-101.064,7.77969,-4896.38,7239.94,4001.98,9.58754,-65.4738,-45.0955
155,0,9505,723.295,-4576.15,-88.8428,-97.4008,4.34876,-4133.65,7873.46,3748.54,10.6691,-63.0983,-39.8098
155,1,9977.4,1496.53,-5430.27,-86.6346,-90.5431,2.03009,-3935.99,8117.47,3682.26,10.9756,-61.9672,-38.0644
156,0,9845.33,2297.38,-5591.7,-85.7474,-87.7609,1.06788,-4563.47,7671.83,3586.69,12.6191,-60.825,-40.1334
156,1,9669.17,2711.06,-5231.95,-88.5468,-89.6303,0.321164,-4830.19,7524.96,3549.41,13.5816,-60.5335,-41.2189
157,0,9842.2,2563.38,-4802.12,-94.0317,-92.7854,-0.151958,-5087.26,7566.8,3354.62,14.313,-60.8227,-41.5697
157,1,10008.8,2342.98,-4618.55,-98.1053,-89.5803,0.12131,-5152.35,7594.38,3243.03,14.6035,-60.6408,-41.3268
158,0,9890.71,2067.79,-4534.72,-100.196,-79.3297,0.791721,-5419.99,7538.25,3130.59,14.6342,-61.2336,-40.8087
158,1,9133.92,1812.73,-4418.67,-102.436,-68.3981,1.79734,-5644.1,7532.13,3029.98,14.9081,-61.8743,-40.7621
159,0,8065.13,1490.85,-4249.95,-105.012,-63.997,2.02752,-5975.42,7432.98,2770.51,15.5935,-63.7926,-39.7884
159,1,7230.27,994.311,-4275.92,-106.858,-65.2407,1.78394,-6089.62,7362.23,2665.99,15.747,-65.0294,-38.9947
160,0,6875.25,344.468,-4454.14,-107.256,-67.2689,1.79862,-5805.25,7597.56,2499.82,14.6817,-66.5678,-36.285
160,1,6911.9,-243.478,-4695.89,-104.654,-67.4244,2.19448,-5600.23,7630.41,2428.95,14.101,-66.8296,-35.1073
161,0,7093.76,-666.288,-4809.86,-99.3067,-65.1715,3.32141,-5159.02,7674.51,2394.25,12.4722,-64.9879,-33.2653
161,1,7362.98,-1001.55,-4772.94,-94.8832,-62.8078,4.38896,-4965.67,7723.64,2370.29,11.6317,-63.9338,-32.409
162,0,7640.74,-1128.78,-4733.37,-85.2287,-58.6497,6.14065,-4756.42,7550.44,2458.68,10.0635,-59.1241,-30.628
162,1,7745.18,-1054.8,-4769.17,-71.4977,-54.2434,7.74198,-4653.2,7438.87,2497.14,9.71013,-56.7393,-29.6501
163,0,7793.06,-605.273,-5002.3,-58.6899,-51.299,8.79453,-4898.08,7181.83,2535.4,11.5365,-51.8526,-28.8731
163,1,7830.19,5.16036,-5430.62,-49.9033,-50.1229,8.88744,-5120.96,7162.15,2497.24,12.682,-49.8484,-28.2477
164,0,7817.11,614.516,-5944.11,-46.8465,-49.6651,8.79582,-5435.56,7483.75,2394.35,15.331,-49.0104,-27.8815
164,1,7720.26,1017.09,-6291.58,-48.746,-49.6645,9.00875,-5611.86,7652.95,2333.21,16.4325,-48.8262,-27.9418
165,0,7525.27,1237.56,-6360.2,-53.0274,-50.9734,10.181,-5787.72,8023.56,2157.47,18.8983,-50.211,-29.2204
165,1,7348.02,1494.81,-6247.86,-57.7225,-54.5981,12.6488,-5865.74,8176.14,2098.52,20.0603,-50.8534,-29.7711
166,0,7317.86,1766.57,-5970.36,-63.2394,-57.9533,15.5906,-6194.44,8302.89,1936,21.2786,-52.2842,-29.7714
166,1,7421.85,1773.01,-5624.45,-67.1603,-58.9021,17.3002,-6355.31,8327.06,1906.94,21.555,-52.7896,-29.4822
167,0,7541.58,1623.5,-5417.09,-72.1421,-56.133,19.3111,-6312.42,8444.14,1764.79,21.7527,-52.1658,-25.8294
167,1,7577.64,1512.06,-5337.94,-76.7779,-49.1569,21.4302,-6274.04,8531.66,1757.27,21.6467,-51.8143,-23.6298
168,0,7472.49,1227.49,-5335.46,-80.6963,-41.3364,22.773,-6052.92,8636.93,1667.74,20.9919,-50.3988,-18.8188
168,1,7386.2,770.384,-5503.98,-82.742,-35.1903,22.8662,-5969.96,8692.11,1640.02,20.747,-49.5738,-16.4954
169,0,7426.71,277.178,-5806.7,-82.2424,-28.9871,22.6679,-5966.35,8739.96,1581.48,20.5035,-48.5382,-13.7087
169,1,7399.36,-137.157,-6251.82,-79.1665,-22.5846,22.3937,-5952.01,8738.86,1589.7,20.3355,-48.3687,-12.7746
170,0,7129.18,-435.392,-6667.34,-74.6709,-18.0083,21.9975,-6087.01,8648.01,1481.02,20.9897,-48.8712,-12.0591
170,1,6778.45,-639.013,-6880.73,-69.6866,-18.2448,21.3424,-6180.55,8637.05,1419.8,21.3565,-49.344,-11.4641
171,0,6563.92,-713.422,-6937.17,-64.8538,-21.2607,20.2912,-6375.44,8571.37,1294.27,22.4981,-51.3686,-9.46975
171,1,6450.1,-644.179,-6993.38,-61.9695,-23.6863,19.4065,-6414.1,8532.96,1200.79,23.0028,-52.3774,-8.01974
172,0,6472.64,-456.378,-7020.98,-58.4808,-27.8138,17.9291,-6263.48,8746.83,931.785,23.4597,-53.6413,-5.55263
172,1,6595.84,-187.125,-6927.79,-55.4,-31.7179,16.3131,-6201.01,8827.41,829.622,23.5519,-54.2983,-4.40621
173,0,6653.45,35.6489,-6837.94,-53.5539,-34.4024,15.2299,-6099.4,8933.78,655.11,23.5822,-54.6642,-3.58352
173,1,6868.6,383.747,-6707.55,-53.2164,-35.2283,14.5891,-6106.34,9018.87,555.53,23.3693,-54.7561,-3.07975
174,0,7232.37,702.315,-6627.23,-53.8709,-32.2919,14.4512,-6026.37,9272.33,340.329,22.7449,-54.7561,-1.61826
174,1,7567.66,987.237,-6684.49,-55.3636,-25.1632,14.8164,-5987.91,9394.77,219.164,22.6523,-54.7561,-1.06723
175,0,7668.59,1248.24,-6783.84,-56.9797,-16.6729,15.8977,-5831.35,9635.07,-35.4981,21.2221,-54.5735,0.0590542
175,1,7614.87,1412.4,-6902.32,-58.1542,-11.134,16.7673,-5718.66,9793.34,-82.6565,20.9143,-54.4666,0.655088
176,0,7565.73,1410.25,-6933.61,-59.1451,-9.22393,17.4534,-5594.23,10111.4,-175.792,19.2409,-53.0817,1.50779
176,1,7634.97,1111.41,-6843.98,-58.9338,-9.32863,17.3937,-5548.58,10280.6,-235.785,18.339,-52.2568,1.90525
177,0,7819.19,588.525,-6745.78,-57.6392,-9.40557,17.2258,-5380.06,10354.8,-319.494,16.2687,-49.8059,2.86425
177,1,8058.56,129.84,-6801.79,-52.7366,-8.47721,17.3777,-5328.29,10425.5,-344.765,15.1989,-48.6135,3.39899
178,0,8178.49,-144.554,-6889.21,-45.8326,-5.15772,17.576,-5275.72,10396.9,-308.915,13.6001,-45.1431,5.9408
178,1,8222.84,-466.404,-7053.07,-37.7245,0.327524,17.622,-5225.4,10345.4,-296.881,12.8359,-43.6592,7.40742
179,0,7994.65,-738.291,-7233.85,-30.6337,6.66835,17.3937,-5189.48,10243.7,-275.371,11.9222,-41.0714,10.7719
179,1,7606.92,-957.404,-7314.22,-23.8048,10.5753,17.0432,-5202.56,10167.1,-275.321,11.555,-40.0613,12.4227
180,0,7277.57,-1125.07,-7337.01,-16.6406,10.1089,16.586,-5145.25,10000.8,-281.312,11.2961,-38.8131,14.4024
180,1,7158.74,-1152.83,-7423.08,-10.4345,7.7321,16.2352,-5084.16,9849.92,-257.421,11.3108,-38.4146,15.0913
181,0,7187.32,-934.116,-7493.78,-6.36127,5.56667,16.3412,-4694.49,9715.85,-241.827,11.3415,-35.9495,16.035
181,1,7341.57,-546.431,-7569.16,-5.48781,4.65011,16.7677,-4535.87,9667.81,-192.815,11.4328,-34.9394,16.3415
182,0,7567.76,-164.487,-7679.25,-6.21824,5.10567,17.1185,-4560.89,9433.56,-119.811,12.1025,-30.952,16.9349
182,1,7699.63,268.751,-7773.86,-7.83297,8.31789,17.8343,-4508.39,9378.05,-61.1213,12.591,-29.4972,17.2255
183,0,7745.21,547.983,-7881.56,-10.2557,12.7075,18.277,-4250.12,9603.96,30.9864,13.0938,-25.8447,17.667
183,1,7752.43,908.065,-8132.71,-13.6537,16.6262,17.7145,-4195.79,9756.23,53.8758,13.323,-24.1776,17.7136
184,0,7720.16,1196.77,-8508.46,-17.4036,20.2088,16.9978,-4189.88,10241.6,156.638,12.9885,-20.281,15.5373
184,1,7540.83,1363.32,-8760.12,-19.9515,22.0563,16.6923,-4138.46,10420.7,166.441,12.6376,-18.9331,14.4975
185,0,7305.02,1437.65,-8756.89,-21.3095,19.7759,16.3268,-4309.24,10809.2,344.438,10.8719,-17.122,10.8294
185,1,7244.85,1296.73,-8373.16,-20.8549,15.2503,16.0369,-4411.25,10954.6,421.354,9.98532,-16.6157,8.99503
186,0,7381.08,1001.2,-7952.86,-17.4598,10.7831,15.5191,-4370.71,11125.6,551.644,7.41286,-16.6463,6.58921
186,1,7692.1,618.232,-7727.51,-12.5221,7.32124,14.5898,-4341.9,11202.4,604.517,6.03755,-16.4637,5.6254
187,0,8085.88,262.611,-7757.09,-9.11954,6.02222,13.8271,-4273.76,11224,708.508,3.57108,-15.8546,4.7727
187,1,8345.91,5.09,-7799.08,-4.80815,5.85366,13.0194,-4241.35,11142.8,738.617,2.71358,-15.8077,4.46655
188,0,8531.51,-74.1826,-7815.85,-1.8628,5.6254,12.3027,-4112.26,11214.3,791.189,0.628601,-15.0319,5.09035
188,1,8687.17,-84.9879,-7812.29,-1.05223,4.95531,11.632,-4070.14,11212.1,827.165,-0.289234,-14.4822,5.16793
189,0,8946.74,39.2844,-7888.76,-0.838655,5.30392,11.0526,-4231.47,11085.4,944.318,-1.09628,-14.4816,5.44152
189,1,9175.51,307.259,-8029.95,-0.655728,7.35953,10.2299,-4303.55,11014.6,988.793,-1.47842,-14.8318,5.36618
190,0,9298.95,784.594,-8276.39,-2.11626,11.4573,9.95435,-4384.85,10917.7,1012.71,-1.29613,-16.4455,6.85704
190,1,9251.32,1095.04,-8629.4,-4.67628,16.9132,10.1673,-4367.1,10892.4,1048.61,-1.08256,-17.4077,7.56066
191,0,8969.13,1275.9,-8692.21,-6.6441,23.1471,10.0156,-4148.31,10990.4,1000.88,-0.990934,-19.524,7.94152
191,1,8484.55,1470.97,-8537.98,-9.90358,28.5909,9.71077,-4115.57,11062.3,995.963,-0.884307,-20.3655,7.91183
192,0,7935.11,1422.33,-8357.19,-14.2319,29.7868,8.90372,-4210.06,11064.8,975.681,-1.31018,-21.2486,6.58761
192,1,7716.65,1180.71,-8355.69,-16.0506,28.5235,8.11072,-4241.32,11082.7,909.897,-1.69167,-21.6157,5.74767
193,0,7779.8,1060.72,-8373.71,-17.1022,25.5989,6.96815,-4285.55,11107.9,844.038,-2.17916,-22.1942,5.19889
193,1,7906.68,1011.61,-8374.92,-19.615,23.4322,5.82461,-4260.55,11052.9,892.924,-2.54533,-22.6063,5.15228
194,0,8193.71,843.035,-8410.77,-22.5115,23.1704,5.18357,-4247.31,11104.2,846.47,-3.8089,-22.5916,6.59813
194,1,8454.82,621.591,-8239.97,-23.7339,26.473,4.83272,-4258.07,11128.2,863.041,-4.52688,-22.9262,7.11883
195,0,8499.44,504.086,-7988.59,-25.6829,31.0305,4.8474,-4136.2,11185.6,829.673,-5.50153,-22.5923,9.41674
195,1,8422.93,236.262,-7831.6,-26.737,34.4777,5.38022,-4000.87,11265.8,867.804,-6.1579,-22.6673,10.2286
196,0,8334.33,67.1884,-7714.27,-25.1555,37.1156,6.32486,-3833.36,11279.1,961.14,-7.19352,-21.557,12.8461
196,1,8230.21,332.279,-7757.09,-23.021,39.4787,7.45275,-3744.61,11265.9,993.581,-7.54565,-20.9759,14.3586
197,0,8105.74,491.902,-7756.06,-23.413,40.4719,8.06347,-3701.49,11032.9,1096.37,-8.0175,-19.3625,16.5362
197,1,8073.25,558.964,-7769.15,-23.7195,40.1989,8.39899,-3742.05,10905.7,1158.74,-7.98813,-18.8415,17.8343
198,0,8187.97,560.268,-7794.29,-23.4456,39.1023,8.88648,-3723.05,10695.2,1161.2,-7.1051,-18.248,19.2814
198,1,8291.01,523.19,-7760.87,-22.8515,39.1457,9.34396,-3696.67,10551.4,1223.32,-6.55536,-17.9575,20.0147
199,0,8420.22,576.89,-7718.96,-22.5916,41.14,9.90774,-3544.87,10478.3,1230.64,-5.36778,-17.6986,21.4459
199,1,8502.93,526.85,-7669.89,-22.8349,43.9139,10.4262,-3459.68,10466.2,1240.17,-4.58914,-17.6676,22.2555
200,0,8525.74,337.871,-7584.96,-22.2421,46.095,10.5944,-3286.32,10453.1,1230.64,-2.76211,-16.7242,22.5607
200,1,8599.85,146.285,-7589.57,-21.1905,47.9549,10.7467,-3257.27,10502.1,1225.83,-1.69295,-16.2655,22.7133
201,0,8652.59,-50.0144,-7699.58,-20.5038,50.8342,11.0209,-3150.97,10455.6,1143.38,-0.154839,-14.8043,22.4243
201,1,8633.54,-254.712,-7819.31,-19.3615,53.2442,11.1432,-3065.86,10426.8,1076.26,0.533137,-13.7815,22.1345
202,0,8519.95,-424.764,-7858.95,-18.5679,53.9631,11.7977,-3078.89,10456.6,1055.86,1.97931,-11.7258,21.6623
202,1,8463.54,-568.441,-7837.46,-18.1864,53.6135,12.2861,-3038.33,10453.1,1103.64,2.66728,-10.6867,21.4331
203,0,8520.85,-456.353,-7803.94,-16.7859,52.4256,13.1998,-3032.24,10455.5,1077.47,4.02215,-7.53577,21.859
203,1,8592.7,-109.457,-7827.79,-15.4741,52.0275,14.2973,-3046.6,10407.7,1084.54,4.72513,-6.11353,22.1948
204,0,8598.79,47.7836,-7835.03,-15.8677,52.0122,15.0297,-3000.02,10570.1,1109.68,6.27793,-3.09955,23.9909
204,1,8652.54,113.643,-7826.66,-16.7367,52.0579,15.4568,-2983.18,10615.9,1140.79,6.99655,-1.86024,24.7101
205,0,8765.01,54.0014,-7849.35,-16.9512,52.5754,15.6857,-2879.21,10725.8,1145.63,7.89491,-0.170481,26.1257
205,1,8824.98,-68.0652,-7861.35,-16.1751,53.6113,15.6861,-2826.39,10854,1183.86,8.26204,0.685416,26.631
206,0,8895.55,-168.672,-7808.78,-14.9103,53.4916,15.4425,-2551.49,11038.2,1265.22,8.6579,2.11658,28.0616
206,1,9066.58,-270.407,-7708.28,-13.3406,52.4406,14.955,-2436.14,11104.3,1262.99,8.9631,2.78924,28.5823
207,0,9371.66,-253.861,-7727.2,-12.6986,52.4081,14.5888,-2474.33,11274,1337.02,9.48091,3.13977,27.9584
207,1,9643.52,-346.971,-7742.85,-12.5763,54.1435,14.6035,-2482.8,11419,1350.35,9.54285,2.91215,27.5613
208,0,9802.89,-490.623,-7696.24,-12.3784,55.6538,14.7711,-2537.75,11535.1,1428,9.46655,1.80054,26.2218
208,1,9871.23,-619.935,-7641.16,-12.2714,58.1213,14.9084,-2592.86,11571.2,1473.6,9.35992,1.0982,25.6101
209,0,9868.92,-719.338,-7595.66,-12.4844,61.398,15.3499,-2787.73,11512.6,1683.96,9.23797,-1.12437,24.6358
209,1,9724.29,-907.114,-7473.7,-12.2871,63.6257,15.8987,-2888.54,11481.4,1709.54,9.16167,-1.78362,24.3293
210,0,9584.15,-1066.43,-7389.79,-11.556,63.7658,16.5388,-2984.23,11413.3,1831.33,10.4702,-3.68567,25.6075
210,1,9473.99,-1198.13,-7263.01,-10.5197,62.9738,17.1182,-2986.81,11413.1,1866.3,11.0972,-4.69448,26.4018
211,0,9447.52,-1244.96,-7075.13,-9.23957,62.1961,17.7583,-3136.13,11402.4,1877.03,12.2542,-7.05401,28.7157
211,1,9422.42,-1231.85,-6845.34,-8.53723,62.3318,18.566,-3171.15,11335.5,1856.75,12.8959,-8.1701,29.7708
212,0,9342.3,-1182.81,-6555.73,-7.82116,63.3064,19.5109,-3315.71,11024.6,1862.66,14.403,-10.1644,30.9737
212,1,9225.02,-1085.91,-6281.53,-7.11978,64.5106,20.7148,-3344.74,10848.3,1853.14,15.015,-11.1579,31.5697
213,0,9118.45,-911.251,-6125.72,-7.17948,65.2736,21.6301,-3387.71,10531.4,1833.98,17.4349,-12.7414,33.9746
213,1,8982.04,-761.532,-5880.54,-7.89523,66.7964,22.8793,-3404.55,10426.8,1811.24,18.5056,-13.5513,35.2583
214,0,8862.28,-631.042,-5603.99,-9.25106,68.7626,24.5556,-3465.5,10223.6,1740.7,21.2454,-15.2564,39.6725
214,1,8752.15,-397.789,-5241.42,-12.2363,69.4966,26.5065,-3511.05,10116.8,1650.92,22.5907,-15.9753,41.5541
215,0,8720.89,-384.175,-5088.97,-14.4793,70.4406,28.5187,-3623.44,9981.64,1545.6,24.7069,-17.7257,45.2682
215,1,8748.36,-409.396,-5070.92,-14.2543,73.1969,30.4853,-3661.93,9890.54,1464.15,25.5485,-18.7492,47.0569
216,0,8679.12,-347.272,-5131.87,-12.7461,77.0374,31.9343,-3566.33,9769.72,1299.11,26.4772,-20.5459,51.1822
216,1,8548.68,-336.367,-5363.84,-10.5367,81.2901,32.4387,-3512.33,9706.14,1181.66,27.0879,-21.0976,53.0935
217,0,8316.6,-382.997,-5728.81,-6.8347,85.0715,31.9978,-3372.47,9463.49,993.882,27.3321,-21.2802,57.2188
217,1,8081.92,-358.002,-6049.76,-3.64705,87.5278,30.9162,-3238.31,9374.52,859.656,27.2868,-21.2502,59.267
218,0,7874.79,-434.391,-6271.35,-2.01379,88.6423,30.0619,-3028.98,9241.84,639.591,27.1648,-21.1282,62.7535
218,1,7698.78,-489.57,-6446.17,0.392667,89.3437,28.8737,-2975.98,9220.03,545.928,26.9972,-20.915,64.2067
219,0,7477.41,-454.974,-6477.53,3.38015,89.0557,27.5779,-2777.63,9266.69,292.519,26.6317,-21.6297,66.4749
219,1,7377.8,-411.853,-6423.73,5.47025,86.1177,26.2518,-2634.95,9301.44,171.254,26.4331,-21.9359,67.4691
220,0,7400.41,-463.171,-6202.54,6.87333,80.8004,25.4125,-2050.42,9520.17,46.8814,24.4394,-21.8143,67.698
220,1,7638.31,-505.139,-5890.16,7.65164,74.9011,24.833,-1884.2,9673.63,-51.3687,23.4153,-21.6313,67.7896
221,0,8104.89,-641.42,-5607.57,8.03314,70.6756,24.6495,-1514.99,9862.63,-111.261,21.1471,-20.2615,66.8919
221,1,8583.8,-713.422,-5285.65,8.61193,70.2126,25.2733,-1385.05,9891.69,-149.594,19.879,-19.2693,66.4941
222,0,9041.11,-766.069,-5017.37,8.64354,72.0093,26.0813,-1355.17,9962.14,-215.378,17.2299,-18.218,64.0439
222,1,9463.74,-981.271,-4934.49,8.87148,77.1262,27.1479,-1363.47,9956.34,-245.387,16.1285,-17.5616,62.5926
223,0,9685.54,-1174.14,-4902.17,10.1504,84.7303,27.7586,-1405.33,10042.3,-252.582,14.0736,-17.9412,59.7759
223,1,9718.08,-1194.74,-4943.94,10.777,89.5987,27.9572,-1460.39,10003.1,-293.221,13.232,-18.0185,58.4916
224,0,9712.09,-1241.3,-5039.66,10.8993,94.8858,27.8052,-1421.05,10057.9,-249.097,11.7555,-19.3574,55.0211
224,1,9714.47,-1316.71,-5109.15,10.6864,98.898,26.8765,-1338.47,10077.2,-244.183,10.6414,-20.4106,52.5786
225,0,9676.24,-1375.4,-5220.39,10.838,101.491,25.7636,-1209.26,9952.91,-152.201,9.28554,-21.9337,48.482
225,1,9612.81,-1428.07,-5256.46,10.9146,102.53,24.8487,-1219.76,9915.58,-159.145,8.58288,-22.8346,46.5713
226,0,9585.21,-1563.2,-5200.31,10.2299,101.587,24.2689,-934.266,9816.4,-61.2466,7.69953,-23.6269,44.3328
226,1,9646.13,-1611.29,-5188.22,9.31523,100.307,23.8724,-793.747,9750.44,-38.2821,7.21077,-23.9328,44.0238
227,0,9743.07,-1986.54,-5183.46,6.2093,100.32,22.9131,-328.796,9839.99,10.6798,6.72328,-23.37,45.0594
227,1,9678.72,-2756.99,-4926.52,6.24825,101.568,22.1198,-155.661,9830.67,35.9005,6.31146,-22.9881,45.6854
228,0,9386.93,-2840.95,-4618.8,9.46144,102.18,21.4947,227.988,9773.21,27.5521,6.08256,-21.3747,46.8883
228,1,9044.54,-2681.71,-4257.39,10.4725,101.48,21.0219,411.702,9762.35,31.1121,6.03659,-20.4885,47.3931
229,0,8883.82,-2682.63,-3834.88,9.84868,98.7087,20.2755,710.589,9523.36,62.1991,5.94528,-18.6767,47.9412
229,1,8840.62,-2717.38,-3617.83,10.8668,96.3137,19.7871,840.302,9367.45,53.9009,6.1429,-17.7902,48.2011
230,0,8752.15,-2649.32,-3348.7,13.2892,94.058,19.6495,1031.59,8983.67,15.6188,6.81299,-15.6286,48.2317
230,1,8738.81,-2484.23,-3001.6,14.146,91.1018,19.5429,1149.12,8788.05,-16.7218,7.14915,-14.7564,48.1404
231,0,8876.27,-2376.35,-2717.76,13.8421,88.5245,19.4666,1100.25,8508.24,-210.364,8.97555,-14.3756,46.9228
231,1,9132.31,-2305.7,-2649.19,14.313,88.2921,18.9034,1145.51,8401.29,-315.959,9.80143,-14.177,46.0679
232,0,9300.11,-2127.53,-2755.54,15.3796,91.4733,17.6239,1250.83,7978.21,-549.087,11.6128,-15.242,43.0386
232,1,9225.05,-1944.32,-2888.43,15.6707,95.3305,15.5213,1317.94,7852.96,-618.907,12.3321,-15.9293,41.5254
233,0,8981.01,-1621.36,-2974.7,15.5338,96.5544,12.6564,1603.64,7617.57,-768.275,13.565,-17.2692,38.9676
233,1,8714.04,-1272.96,-3068.04,14.94,95.8703,10.7946,1827.74,7501.1,-926.368,14.1004,-17.7742,37.8512
234,0,8518.8,-1029.78,-3179.35,13.4322,93.0076,7.77903,2352.66,7535.67,-1070.02,14.5116,-18.3071,37.47
234,1,8364.34,-905.134,-3301.44,11.6639,89.7603,4.4707,2564.1,7569.24,-1124.05,14.4515,-18.5213,37.6976
235,0,8258.92,-916.917,-3311.22,8.79997,86.407,1.55855,2964.55,7646.96,-1327.24,14.3903,-19.0388,38.1245
235,1,8103.41,-1065.18,-3182.11,5.4313,82.5815,-0.744156,3168.59,7588.57,-1407.77,14.3446,-19.1617,38.3687
236,0,7947.75,-1243.56,-2904.58,3.29492,77.8419,-2.42178,3046.88,7546.55,-1695.8,15.2423,-21.2007,37.8668
236,1,7788.55,-1413.56,-2567.04,3.32237,71.0615,-3.53531,2943.77,7527.4,-1798.03,15.6401,-22.3924,37.2721
237,0,7754.81,-1591.91,-2261.71,5.25603,61.9487,-4.37396,2757.22,7515.41,-2029.88,16.6294,-25.9392,36.3581
237,1,7997.41,-1691.41,-2084.33,6.81235,53.2123,-5.62317,2657.64,7545.27,-2142.75,17.1795,-27.8493,36.1432
238,0,8382.76,-1763.24,-1916.79,7.86458,47.765,-6.47778,2571.5,7613.46,-2373.47,16.7083,-31.7619,36.2042
238,1,8739.59,-1716.76,-1804.15,8.74889,45.0942,-7.33112,2533.09,7661.4,-2457.63,16.2961,-33.5356,36.1282
239,0,9025.79,-1630.56,-1806.38,8.68951,44.6188,-8.0175,2531.86,7760.65,-2715.78,15.0326,-36.5499,36.7824
239,1,9215.07,-1630.41,-1890.09,7.0454,46.1407,-8.90117,2576.09,7866.02,-2822.73,14.3602,-37.8652,36.8753
240,0,9284.66,-1634.05,-1979.89,5.70266,48.5181,-9.78547,2791.29,8249.79,-2980.52,12.3509,-39.0378,37.3315
240,1,9297.88,-1657.94,-2019.48,4.74205,50.6529,-10.6391,2862.26,8423.91,-3048.98,11.2965,-39.6185,37.3631
241,0,9202.28,-1763.16,-1803.22,3.18829,51.5694,-10.8537,2963.85,8847.06,-3141.04,8.28247,-39.6495,35.5823
241,1,9065.83,-1831.5,-1420.3,2.88086,50.1552,-10.5341,3051.32,8986.63,-3152,6.81491,-39.4516,34.4065
242,0,9188.67,-1904.48,-1169.82,4.11378,46.9407,-10.1986,3022.76,9342.75,-3239.19,2.99419,-38.1577,30.1443
242,1,9643.14,-1975.13,-1156.34,6.79479,46.904,-10.3046,3050.14,9540.76,-3266.89,1.03786,-37.5157,28.3696
243,0,10021.7,-2070.85,-1247.24,9.06749,51.4864,-10.7767,3333.46,9968.75,-3150.97,-4.00077,-34.563,26.0861
243,1,10096.4,-2226.38,-1212.77,9.61883,55.8486,-11.2342,3502.58,10200.3,-3101.71,-7.61844,-32.4106,24.818
244,0,10104.7,-2301.97,-1088.35,9.31459,57.1945,-11.3871,3658.11,10186.2,-2800.54,-13.2687,-27.4014,23.8581
244,1,10215.9,-2373.74,-960.238,8.20298,57.7736,-11.722,3773.14,10145.5,-2621.79,-15.6695,-24.895,23.3693
245,0,10309.3,-2404.96,-875.175,5.17239,59.0682,-11.6467,3675.31,9832.32,-2279.83,-19.7038,-19.5058,23.6579
245,1,10282,-2408.57,-745.988,0.661791,61.2317,-11.0832,3577.04,9636.82,-2148.84,-21.1582,-17.3027,24.0544
246,0,10155.2,-2344.04,-626.228,-5.29658,62.2858,-10.2299,3382.12,9053.44,-1817.76,-21.813,-13.482,25.2877
246,1,10039,-2354.64,-630.816,-10.6337,62.1195,-9.04131,3301.64,8839.44,-1648.51,-22.0579,-12.0278,25.9447
247,0,9980.29,-2297.36,-806.558,-14.4924,62.3318,-8.17169,3183.29,8449.8,-1362.76,-20.2471,-10.3534,28.5475
247,1,9919.26,-2184.87,-1033.99,-17.1919,62.7586,-7.85085,3178.25,8246.96,-1252.2,-19.2233,-9.49751,29.7098
248,0,9805.62,-2061.57,-1224.4,-18.1245,63.4137,-7.94184,3260.78,8318.49,-1054.98,-15.7984,-8.70547,32.054
248,1,9719.36,-1922.73,-1419.5,-17.9578,64.0084,-8.48998,3292.01,8404.75,-969.689,-14.6038,-8.42996,33.0788
249,0,9690.55,-1818.52,-1667.22,-17.5006,63.9638,-9.16071,3444.99,8648.66,-858.503,-12.0623,-8.18638,31.9838
249,1,9747.89,-1734.71,-1955.67,-15.8259,63.4003,-10.5162,3513.46,8767.49,-809.265,-11.2195,-8.38367,31.2202
250,0,9639.28,-1707.08,-2073.3,-13.844,63.5056,-11.8277,3250.6,8638.53,-757.846,-9.11953,-9.20605,27.9476
250,1,9441.8,-1683.16,-2030.38,-11.5732,62.7302,-13.1841,3242.8,8619.08,-677.672,-8.14073,-9.54253,26.4337
251,0,8967.02,-1658.02,-1806.78,-8.60171,55.9108,-15.2257,2786.5,8539.08,-656.011,-6.1314,-12.1753,24.2262
251,1,8642.19,-1583.88,-1566.11,-4.92881,42.9457,-18.4405,2581.02,8548.43,-645.256,-5.53346,-13.5966,23.1714
252,0,8821.02,-1503.66,-1404.38,-0.356908,29.925,-22.2967,2788.86,8930.92,-745.612,-5.04661,-16.6109,20.8118
252,1,9285.24,-1348.17,-1333.63,4.41452,22.3857,-26.0318,2867.05,9083.55,-794.85,-4.87805,-17.7892,19.6958
253,0,9707.97,-1148.29,-1307.26,7.70975,20.3668,-29.4621,3043.92,9111.1,-788.908,-5.47153,-19.9659,18.7058
253,1,9942.88,-981.823,-1320.37,8.00377,21.6438,-32.1766,3113.64,9174.48,-785.298,-6.03595,-20.9447,18.369
254,0,10010.1,-903.88,-1326.39,6.67891,24.0059,-33.6723,3378.96,9276.19,-720.767,-7.80201,-21.8583,18.9471
254,1,9906.2,-847.623,-1269.03,5.64136,25.1363,-34.1917,3516.99,9314.62,-684.767,-8.62757,-21.9972,19.5572
255,0,9729.08,-847.522,-1109.96,3.28119,25.2136,-34.4966,3756.11,9397.1,-550.892,-10.5456,-21.4034,20.6538
255,1,9631.96,-891.771,-959.059,0.187072,23.0373,-34.4819,3805.63,9355.46,-503.986,-11.5238,-21.2195,21.2495
256,0,9582.85,-1066.34,-759.25,-2.43584,19.441,-34.4056,3807.96,9228.63,-334.285,-12.5594,-20.1239,21.8893
256,1,9693.91,-1263.89,-596.344,-4.69225,17.38,-33.8881,3840.25,9172.22,-274.142,-12.9572,-19.7561,22.1645
257,0,9799.35,-1415.99,-477.787,-6.65912,18.0622,-32.5782,4029.13,9100.47,-172.558,-13.0335,-18.7974,23.0625
257,1,9806.67,-1544.1,-364.069,-8.54936,19.5559,-30.5973,4103.64,9103.91,-117.353,-13.1401,-18.2474,23.3993
258,0,9783.94,-1514.44,-227.637,-11.7179,21.3086,-28.0066,4104.87,8793.26,22.5134,-12.3033,-17.3034,22.8212
258,1,9828.11,-1493.98,-195.121,-15.4067,22.4074,-25.491,4082.15,8643.14,81.3778,-11.7383,-16.8752,22.4394
259,0,9977.6,-1443.79,-328.971,-18.2132,23.6263,-23.0976,4042.67,8542.66,226.008,-9.95722,-16.2815,21.7389
259,1,10032.9,-1315.81,-520.482,-19.5263,24.5569,-21.4044,4135.8,8467.18,276.524,-8.3859,-16.1889,21.1592
260,0,10025.7,-1170.95,-723.977,-20.8061,25.8061,-19.2105,4052.39,8465.87,439.054,-6.1314,-15.763,20.3975
260,1,9993.45,-1124.1,-825.912,-22.2998,26.3412,-17.0911,3984,8467.1,493.206,-5.12259,-15.9293,20.0916
261,0,9786.64,-1106.15,-885.78,-23.5503,25.3068,-15.2158,4010.23,8519.67,625.852,-3.40218,-15.6257,18.3262
261,1,9430.07,-1165.86,-864.369,-22.5632,21.6064,-13.1583,4004.33,8544.89,670.376,-2.45499,-15.3509,17.2874
262,0,9128.25,-1201.86,-798.56,-19.532,14.9183,-11.572,4030.58,8493.52,795.853,-1.26708,-14.4375,16.1298
262,1,8980.79,-1203.09,-694.469,-15.8738,6.8401,-10.3978,3991.22,8446.79,898.916,-0.458114,-13.8268,15.6557
263,0,9086.96,-1302.27,-679.928,-11.1499,0.419152,-9.66543,3856.07,8369.05,1048.44,0.699468,-12.3043,15.1532
263,1,9278.47,-1214.07,-645.306,-6.13458,-1.17354,-8.64481,3787.68,8356.94,1073.83,1.21919,-11.5097,14.9544
264,0,9334.98,-1036.93,-635.654,-2.77805,-1.26516,-7.30366,3598.8,8177.71,1135.93,2.23918,-9.3481,14.3456
264,1,9269.27,-941.009,-651.198,-1.43404,-0.823967,-6.4947,3499.19,8091.25,1216.15,2.60663,-8.43028,14.2377
265,0,9131.69,-838.121,-641.671,-0.899948,0.105354,-5.65668,3335.39,7921.5,1221.07,4.81325,-6.43627,14.3596
265,1,9071.67,-755.464,-747.994,-1.11225,0.457158,-4.33118,3234.65,7806.4,1223.42,5.68574,-5.47312,14.6185
266,0,9075.2,-712.319,-831.904,-1.58473,1.67476,-2.68516,3257.24,7832.55,1261.68,6.96432,-3.22021,16.156
266,1,9007.11,-682.385,-930.004,-1.52471,3.53404,-0.795231,3327.84,7819.51,1259.38,7.92588,-2.31739,16.9203
267,0,8871.91,-596.294,-1029.38,-1.82863,4.25265,0.562512,3185.77,7756.11,1240.22,9.70758,0.117812,18.1535
267,1,8777.24,-519.629,-1121.56,-2.59035,3.64449,1.53844,3110.11,7695.04,1299.94,10.4265,1.3255,18.6279
268,0,8793.84,-420.326,-1277.08,-3.21575,3.41464,2.36177,2844.76,7659.09,1339.52,12.3139,2.74167,19.2977
268,1,8737.76,-288.683,-1411.23,-5.45366,4.32768,3.24576,2636.23,7705.64,1345.54,13.0181,3.30769,19.4666
269,0,8653.95,-311.146,-1441.31,-9.44549,4.90806,3.97778,2570.22,8039.18,1248.74,14.3727,3.35366,18.5838
269,1,8658.59,-373.42,-1444.89,-13.1966,3.90435,4.83113,2551.04,8231.12,1140.97,14.8171,3.0341,17.9275
270,0,8910.79,-430.881,-1467.61,-14.6789,3.21702,5.28924,2837.82,8944.74,1079.85,14.5432,1.83118,15.0658
270,1,9347.54,-240.973,-1582.38,-14.1933,3.15541,6.14194,2913.78,9242.7,988.943,14.4969,1.32646,13.9637
271,0,9645.93,-61.2458,-1726.03,-12.7308,4.6316,6.76766,3347.52,9842.75,883.598,12.6405,0.184836,11.4829
271,1,10147.1,101.535,-1916.29,-11.404,7.86108,6.84459,3509.87,10072.3,839.199,11.9665,-0.365536,10.3055
272,0,10689.4,107.802,-2014.64,-10.3671,11.8392,5.96188,3711.87,10518.2,757.896,9.89688,-0.472482,8.03728
272,1,11144.4,-58.3894,-2026.7,-8.935,15.8333,4.43812,3785.22,10746.2,693.19,9.02471,-0.670414,7.04316
273,0,11507.3,-393.353,-2018.32,-6.29963,19.1575,2.74613,3597.62,10856.4,636.933,6.77211,-1.18823,3.89253
273,1,11761.2,-800.317,-2044.6,-2.30748,21.7195,0.901856,3551.77,10884,636.833,5.76268,-1.38712,2.63759
274,0,11796.3,-1069.92,-2133.1,1.97614,23.0932,-1.30795,3303.24,10919.9,595.04,3.66204,-1.95027,-0.0411999
274,1,11613.4,-1153.96,-2213.35,5.69661,22.258,-3.57938,3153.28,10845.9,561.471,2.8052,-2.22545,-0.960287
275,0,11296.3,-1063.2,-2249.32,7.45276,20.8859,-4.92243,2862.74,10652.1,548.285,1.37434,-2.39306,-1.66039
275,1,10822.5,-828.743,-2194.39,8.38304,18.3575,-6.32424,2711.54,10564.5,574.558,0.82333,-2.21076,-1.98155
276,0,10495.3,-711.165,-2109.4,8.41496,15.248,-7.3921,2339.75,10238.2,544.75,0.473117,-2.13415,-1.32741
276,1,10056.3,-504.31,-2037.55,7.57757,11.8034,-7.5763,2193.14,10071.3,492.077,0.365854,-2.1798,-0.686691
277,0,9673.02,-286.375,-1981.27,5.30838,8.49507,-7.0588,2086.72,9871.61,478.84,0.822377,-2.01251,1.68818
277,1,9468.08,-191.611,-1964.45,3.03632,5.85684,-6.06851,2004.03,9832.95,496.766,0.838653,-1.76861,2.8499
278,0,9414.03,-152.075,-1948.91,1.22174,4.74173,-4.78834,2015.87,9689.6,434.666,1.66008,-1.70732,5.27042
278,1,9394.87,-157.992,-1990.7,-0.759494,5.39491,-3.53818,2011.15,9628.3,461.994,2.17948,-1.4334,6.67572
279,0,9390.06,-216.582,-2106.72,-3.06093,6.85769,-2.50127,2113.89,9517.14,428.649,2.75827,-1.20451,8.53373
279,1,9382.89,-299.163,-2230.04,-4.79985,8.89958,-1.52566,2193.01,9481.04,408.218,2.92683,-0.747667,9.26798
280,0,9319.54,-374.599,-2317.49,-5.73076,10.273,-1.14353,2465.58,9359.15,385.504,3.42901,0.348942,9.64884
280,1,9220.21,-528.881,-2523.16,-6.78203,11.2792,-1.23452,2559.39,9368.42,414.134,3.59756,0.670732,9.61915
281,0,9150.71,-660.65,-2768.58,-7.94057,11.0679,-1.28049,2687.27,9234.7,383.147,4.00843,2.58813,9.66448
281,1,9136.27,-761.231,-2898.06,-8.96215,9.59072,-1.09788,2747.32,9116.04,408.143,4.192,3.50562,9.96904
282,0,9125.52,-885.68,-2985.46,-9.38993,7.13765,-0.71702,2735.41,9028.65,439.305,4.52688,5.56061,9.69576
282,1,9218.71,-980.32,-2999.95,-9.54253,4.77428,-0.335843,2758.07,9039.25,448.907,4.63415,6.53908,9.66448
283,0,9376.67,-1007.95,-2943.76,-9.34491,3.24862,0.0300112,2721.09,9017.82,503.886,4.99937,8.51809,8.87338
283,1,9547.85,-931.482,-2854.01,-9.13134,3.01814,0.258908,2716.2,9010.57,525.521,5.0763,9.42026,8.41496
284,0,9612.68,-836.892,-2740.32,-9.26798,4.00748,0.259226,2651.7,9011.78,551.82,5.47185,10.4709,7.21235
284,1,9580.47,-720.817,-2617.02,-9.46623,4.92275,0.152598,2628.83,8975.92,560.243,6.02063,11.1123,6.3271
285,0,9524.21,-621.414,-2524.79,-9.28394,5.16761,0.121951,2639.59,9032.01,599.679,6.70637,11.7217,4.33245
285,1,9549.21,-562.7,-2461.31,-9.02471,5.00032,0.0306467,2621.69,9087.14,623.671,6.98155,11.9816,3.4456
286,0,9680.75,-557.837,-2479.14,-8.5982,5.48685,-0.0456523,2607.3,9158.91,638.036,7.1035,12.1948,0.842782
286,1,9734.8,-549.488,-2429.02,-7.97344,7.72509,-0.106628,2608.48,9143.52,630.891,7.31676,12.3474,-0.273914
287,0,9642.82,-513.612,-2236.48,-8.58097,9.46464,-0.0762989,2559.49,9127.9,648.791,7.78892,12.3781,-2.51151
287,1,9692.78,-556.558,-2153.63,-9.70886,9.36055,0.167286,2478.11,9101.6,699.032,8.01814,12.2867,-3.45997
288,0,9935.56,-657.065,-2231.25,-9.58913,11.0791,0.517816,2492.3,9125.44,674.036,8.73357,11.9365,-4.26702
288,1,10075.9,-717.007,-2364.09,-8.67514,15.0399,1.06628,2504.33,9161.37,682.31,9.00907,11.8293,-4.87742
289,0,10102.3,-792.369,-2524.47,-7.77551,18.3955,1.31082,2561.7,9212.81,624.999,9.16135,11.2814,-4.86305
289,1,10035.4,-824.784,-2606.02,-7.19576,21.3377,1.43277,2580.95,9306.12,596.169,9.11602,11.3715,-4.77142
290,0,9869.15,-900.095,-2504.53,-7.21013,22.7123,1.28081,2631.14,9332.6,507.72,8.99407,10.5504,-3.93436
290,1,9684.78,-956.427,-2383.57,-7.53002,22.6529,1.0369,2590.63,9321.84,475.255,8.82646,10.4265,-3.56723
291,0,9696.42,-1028.2,-2305.7,-8.12413,21.2371,0.656044,2564.2,9382.76,359.33,8.73484,9.66607,-2.66919
291,1,9744.35,-1037.91,-2288.86,-8.33834,20.884,0.685738,2579.72,9436.69,349.504,8.58256,9.16199,-2.24109
292,0,9800.58,-1023.54,-2263.76,-8.26236,21.8277,0.731708,2589.32,9426.01,244.408,8.12572,7.44189,-2.37773
292,1,9794.72,-980.494,-2241,-8.09475,22.682,0.823012,2558.26,9422.38,238.167,7.8052,6.66199,-2.16511
293,0,9751.65,-902.726,-2185.99,-8.04878,22.8659,0.944964,2590.45,9427.16,141.445,7.69825,5.2158,-2.07317
293,1,9786.22,-841.63,-2104.62,-8.04878,22.5919,1.20387,2626.4,9446.29,126.855,7.68293,4.25392,-2.11882
294,0,9841.3,-842.734,-2039.93,-7.95748,22.5913,1.23484,2669.47,9513.25,55.2038,7.18075,3.03536,-1.90589
294,1,9901.14,-854.718,-1968.13,-7.69857,23.1698,1.26517,2688.68,9548.05,10.8051,6.82959,2.36336,-1.64666
295,0,9920.37,-860.709,-1891.52,-7.485,24.0385,1.28049,2812.98,9570.79,-9.55188,5.99221,1.52566,-1.53971
295,1,9900.06,-865.498,-1825.66,-7.21077,24.5879,1.32614,2878.98,9609.07,-32.2906,5.50345,1.09788,-1.34178
296,0,9874.92,-873.871,-1781.34,-6.95154,24.6951,1.38712,2962.69,9580.47,-49.0624,4.7877,1.08224,-0.184831
296,1,9872.48,-897.788,-1743.03,-6.61633,24.3756,1.31113,2998.72,9552.89,-41.9172,4.39056,0.8693,0.319884
297,0,9859.35,-912.178,-1733.4,-6.34178,24.0857,1.32614,3023.84,9490.72,-31.1371,3.87275,1.38616,1.41586
297,1,9861.7,-889.49,-1722.65,-5.91527,23.9331,1.20451,3034.64,9399.76,-43.0707,3.67386,1.58537,1.8596
298,0,9828.26,-884.651,-1719.04,-5.65573,23.6285,1.20419,3125.47,9336.26,-94.49,3.47593,2.08754,2.52938
298,1,9766.04,-875.099,-1701.11,-5.74672,22.7605,1.44777,3155.56,9290.75,-99.3781,3.59725,2.43871,2.7439
299,0,9767.11,-839.224,-1670,-6.02095,21.9065,1.75265,3245.18,9179.54,-131.619,3.8868,3.3674,3.10912
299,1,9816.15,-857.074,-1690.26,-6.23452,21.7986,2.10318,3286.02,9196.04,-172.333,4.00907,3.70419,3.36867
300,0,9841.35,-895.382,-1732.15,-6.64571,22.651,2.28643,3329.07,9169.87,-196.3,4.29831,4.63256,3.46029
300,1,9787.6,-905.008,-1714.3,-7.04221,23.3834,2.49968,3310.04,9148.26,-204.698,4.5272,5.21294,3.38431
301,0,9710.98,-948.029,-1675.99,-7.40806,23.4909,2.65228,3284.87,9041.88,-173.636,5.07535,5.85271,3.1254
301,1,9727.58,-991.15,-1626.93,-7.86522,22.9278,2.86554,3262.13,8978.31,-195.071,5.38086,6.03659,3.00313
302,0,9743.2,-1033.04,-1602.94,-7.98781,22.6526,3.01814,3259.7,9022.46,-202.316,6.47684,6.2192,3.07911
302,1,9740.82,-1079.72,-1599.33,-7.85085,22.6676,3.14009,3278.83,9004.66,-229.794,7.01188,6.4631,3.15541
303,0,9771.88,-1059.49,-1567.06,-7.48531,22.6829,3.35334,3263.33,9014.13,-257.346,8.07753,6.57005,2.89682
303,1,9832.9,-1070.17,-1556.23,-6.73892,22.9112,3.6429,3309.89,9039.28,-234.682,8.50594,6.53972,2.80488
304,0,9853.33,-1052.3,-1556.23,-6.02222,23.2161,3.76517,3295.67,9063.22,-253.736,9.17572,6.57005,2.62227
304,1,9843.78,-1068.97,-1570.57,-5.57975,23.6579,3.73484,3281.26,9079.99,-231.097,9.70982,6.76798,2.69793
305,0,9865.26,-1102.49,-1596.9,-5.21389,24.0544,3.58256,3269.3,9054.92,-266.873,10.3193,6.64666,2.60695
305,1,9870.1,-1114.49,-1571.85,-4.985,24.055,3.39963,3251.35,9063.22,-271.761,10.5335,6.72233,2.51532
306,0,9894,-1137.21,-1528.75,-5.03033,24.207,3.35366,3128.23,9123.01,-372.118,10.8684,6.90525,2.4087
306,1,9845.06,-1155.18,-1525.09,-4.92402,24.9074,3.07975,3135.13,9119.55,-385.504,10.7474,6.90557,2.51501
307,0,9804.29,-1180.3,-1520.33,-4.96936,25.3502,3.03346,3079.07,9158.94,-410.55,10.6707,6.66198,2.42402
307,1,9775.56,-1166.01,-1510.75,-4.86304,25.1986,3.04878,3094.44,9135.15,-407.039,10.899,6.67667,2.14979
308,0,9739.66,-1144.45,-1529.86,-4.4062,25.1676,2.91182,2989.37,9139.83,-463.172,10.8843,5.97688,2.07317
308,1,9676.26,-1096.62,-1565.76,-4.58786,25.3655,2.77455,2960.41,9124.34,-497.969,10.7167,5.5491,2.21013
309,0,9625.94,-1053.5,-1571.8,-5.24295,25.1986,2.6526,2971.19,9206.75,-509.952,10.2599,4.84867,2.16479
309,1,9568.51,-1047.46,-1559.84,-5.92901,24.8937,2.62195,2973.6,9211.73,-487.264,9.93935,4.22328,2.2711
310,0,9534.94,-1030.73,-1574.16,-6.32583,24.5888,2.53065,2941.33,9174.63,-529.031,9.28457,3.21797,2.18012
310,1,9511,-1031.89,-1565.83,-6.85897,23.7818,2.27174,2916.16,9125.57,-542.293,9.17667,2.88118,1.95154
311,0,9526.49,-1041.47,-1568.19,-7.14916,23.3083,2.05817,2879.08,9105.16,-559.015,8.70514,1.49628,2.43807
311,1,9594.66,-1079.72,-1584.94,-7.42339,22.7295,1.78393,2879.01,9106.34,-561.446,8.53659,0.625713,2.71326
312,0,9636.62,-1106.1,-1600.51,-7.59131,22.3784,1.57036,2943.57,9125.47,-614.019,8.39963,-0.744812,3.20043
312,1,9665.35,-1092.98,-1636.38,-7.75891,22.4997,1.47874,2978.36,9124.32,-621.314,8.03409,-1.15854,3.17105
313,0,9694.08,-1129.99,-1650.8,-7.80488,22.5153,1.05254,3062.05,9100.4,-603.364,7.78988,-2.11724,3.01845
313,1,9686.96,-1162.35,-1626.9,-7.66792,22.3631,0.82333,3074.18,9096.76,-616.476,7.78956,-2.75859,3.03346
314,0,9674.98,-1200.64,-1622.07,-7.85022,22.0432,0.381811,3158.99,9144.57,-583.057,7.80488,-3.13977,2.95748
314,1,9658.23,-1211.47,-1605.34,-7.92683,21.723,0.106945,3232.1,9181.73,-637.937,7.62227,-3.09475,2.88118
315,0,9639.08,-1236.56,-1581.4,-7.74422,21.0985,-0.212939,3325.41,9174.61,-660.8,7.37837,-3.14009,2.95716
315,1,9619.93,-1248.57,-1589.72,-7.50032,19.682,-0.533141,3351.88,9205.64,-700.236,7.59099,-3.07943,2.98781
316,0,9690.4,-1224.68,-1612.46,-7.16511,18.2639,-0.883672,3420,9210.51,-738.568,6.99814,-2.4553,3.26172
316,1,9794.54,-1194.74,-1629.24,-7.25578,17.7899,-0.97561,3482.3,9186.59,-739.821,6.99656,-2.07349,3.2167
317,0,9824.6,-1187.52,-1657.94,-7.54534,18.1091,-1.06692,3509.87,9190.12,-801.946,6.84491,-0.870883,3.62726
317,1,9822.22,-1198.28,-1673.53,-8.03283,18.2774,-1.05191,3514.69,9208.07,-848.701,6.81395,-0.3965,3.64353
318,0,9770.82,-1212.64,-1665.19,-8.62726,17.9731,-1.03659,3532.61,9220.06,-882.22,6.46405,0.866764,3.78017
318,1,9753.98,-1241.35,-1636.48,-8.91745,17.3637,-0.808323,3545.8,9218.88,-922.909,6.38712,1.64571,3.88712
319,0,9757.56,-1224.68,-1628.06,-9.28299,16.6473,-0.640403,3541.04,9203.34,-933.739,5.99157,3.27483,4.31331
319,1,9783.86,-1223.42,-1610.13,-9.66416,16.3721,-0.381494,3542.22,9227.2,-969.589,5.80801,3.91745,4.63383
320,0,9777.94,-1204.32,-1589.77,-9.98436,16.3415,-0.213573,3554.17,9179.47,-938.602,5.74703,4.96777,4.51251
320,1,9773.13,-1186.35,-1570.62,-10.3349,16.3415,-0.0459693,3572.12,9174.56,-891.896,5.59475,5.44184,4.45122
321,0,9776.72,-1157.64,-1540.71,-10.7008,16.2958,0,3469.39,9193.71,-881.066,5.50313,6.49216,4.49687
321,1,9795.84,-1145.63,-1535.87,-10.884,16.4175,0,3429.7,9177.01,-866.726,5.44215,7.05753,4.14698
322,0,9801.86,-1169.52,-1555,-10.869,16.783,0.136958,3378.31,9219.98,-843.987,4.97031,7.49937,4.1157
322,1,9801.86,-1181.53,-1575.36,-10.4884,17.3468,0.274232,3332.78,9204.56,-827.215,4.95403,7.94152,4.192
323,0,9812.62,-1197.08,-1601.68,-9.86368,17.9109,0.259226,3330.32,9154.3,-769.829,4.58913,8.23139,3.8421
323,1,9805.47,-1226.98,-1619.66,-9.2386,18.5053,0.19825,3329.14,9112.38,-766.12,4.67948,8.20138,3.71951
324,0,9773.18,-1253.33,-1587.42,-8.72015,18.7042,-0.0909884,3213.22,9102.75,-695.646,4.52784,8.4903,3.58256
324,1,9709.78,-1270.11,-1557.46,-8.32365,18.4456,-0.274232,3206.98,9167.29,-709.812,4.45122,8.3693,3.58224
325,0,9637.95,-1270.13,-1544.27,-8.14041,17.6689,-0.441836,3232.15,9156.68,-676.443,4.49687,8.65791,3.64322
325,1,9630.66,-1268.93,-1538.28,-7.8815,16.8455,-0.57911,3193.94,9213.97,-646.459,4.64915,8.59788,3.43028
326,0,9670.12,-1225.91,-1537.08,-7.71358,16.2355,-0.609756,3165.16,9186.64,-638.061,4.28425,8.53659,3.76453
326,1,9685.74,-1222.22,-1562.17,-7.54597,16.0519,-0.655409,3171.1,9173.38,-608.177,4.46591,8.62789,3.85679
327,0,9712.04,-1233,-1563.43,-7.59131,16.5844,-0.716385,3113.76,9113.63,-620.061,4.61882,8.52158,3.75016
327,1,9663.1,-1221.07,-1553.85,-7.71326,17.0879,-0.95997,3104.06,9078.84,-580.675,4.36023,8.38431,3.81082
328,0,9636.67,-1205.5,-1529.93,-7.97217,16.9212,-0.945281,3093.33,9063.27,-579.372,4.17699,8.07975,4.02408
328,1,9648.61,-1169.62,-1511.96,-8.14009,16.1901,-0.823329,3088.52,9091.92,-580.6,4.2833,7.85085,4.17667
329,0,9671.35,-1148.04,-1526.27,-8.35335,15.656,-0.747031,3084.94,9127.85,-611.663,4.0097,7.94184,4.29862
329,1,9810.01,-1194.62,-1657.77,-8.00377,16.0966,-0.59475,3094.49,9125.52,-622.492,4.17636,7.94216,4.51188
330,0,9904.72,-1236.56,-1789.51,-6.49628,19.5675,-0.594433,3198.48,9147,-572.301,3.94873,7.60726,4.89274
330,1,9663.45,-1148.19,-1772.99,-5.58006,21.6294,-0.655409,3217.83,9133.92,-533.944,3.97842,7.45435,4.95435
331,0,9472.84,-1140.79,-1714.32,-5.8377,19.6686,-1.12726,3144.9,9094.43,-523.139,3.88743,6.84554,5.07598
331,1,9405.68,-1192.24,-1667.62,-6.24953,16.4372,-1.78267,3150.72,9083.6,-561.372,3.88712,6.692,5.03065
332,0,9624.29,-1203.09,-1714.15,-6.25016,14.8337,-1.95122,3135.25,9047.75,-556.683,3.94809,6.52471,5.22826
332,1,9876.97,-1169.62,-1758.5,-5.9456,15.1667,-1.63165,3177.02,9060.81,-572.177,3.91776,6.28081,5.85271
333,0,9968.2,-1144.45,-1745.41,-5.94497,17.9224,-1.43309,3244.06,9076.41,-550.716,3.71983,5.89995,6.3105
333,1,9810.53,-1143.23,-1655.73,-6.61475,20.6979,-1.5394,3293.17,9075.23,-533.919,3.74984,5.83834,6.49375
334,0,9617.74,-1158.77,-1613.72,-7.05753,20.5654,-1.53971,3418.72,9013.08,-592.459,3.64353,5.89931,6.43309
334,1,9582.77,-1152.83,-1673.43,-6.95154,18.981,-1.52439,3457.23,9017.72,-616.501,3.73452,5.91464,6.5394
335,0,9643.75,-1159.97,-1727.36,-6.79894,18.1257,-1.6157,3503.83,9004.63,-603.364,3.46092,6.46247,5.99189
335,1,9666.58,-1152.83,-1734.61,-6.63134,17.7139,-1.46373,3580.42,8986.65,-663.082,3.35366,6.64634,5.74703
336,0,9682.13,-1145.63,-1772.84,-6.49406,17.2111,-1.31113,3661.83,8983.04,-670.401,3.2167,7.10287,5.09257
336,1,9701.28,-1130.09,-1771.73,-6.28081,16.8906,-1.09788,3682.28,8986.63,-690.684,3.07943,7.2561,4.60414
337,0,9698.92,-1136.03,-1766.92,-5.9456,16.6923,-1.08224,3610.58,8969.91,-734.958,2.82052,7.02784,3.59915
337,1,9714.44,-1136.05,-1770.51,-5.35148,16.1442,-1.05191,3636.71,8953.14,-714.725,2.42434,7.17949,3.24703
338,0,9702.53,-1138.44,-1775.29,-4.95467,15.8387,-1.17354,3649.97,9021.23,-743.331,1.67794,6.66262,2.59257
338,1,9692.93,-1128.88,-1780.08,-5.01501,15.6557,-1.40212,3670.27,9059.63,-752.983,1.50907,6.55472,2.3324
339,0,9688.14,-1146.79,-1788.46,-5.19794,15.2902,-1.64603,3623.72,9003.5,-737.439,0.930908,6.35711,1.67794
339,1,9686.94,-1179.1,-1801.62,-5.60913,14.8177,-1.66167,3663.03,8961.53,-703.945,0.549098,6.41745,1.37211
340,0,9665.43,-1212.62,-1790.89,-5.91432,14.6495,-1.69199,3736.06,8907.71,-740.925,-0.15133,6.37211,0.793634
340,1,9654.62,-1210.29,-1750.22,-6.15822,14.5428,-1.75297,3718.26,8902.82,-720.717,-0.365854,6.29581,0.655409
341,0,9657.01,-1203.09,-1705.92,-6.12821,14.6035,-1.81395,3742.07,8870.58,-708.684,-1.00499,6.64571,0.0315969
341,1,9690.48,-1191.13,-1705.85,-6.00626,15.3646,-1.92057,3822.22,8869.3,-680.003,-1.26517,6.90525,-0.182927
342,0,9665.46,-1166.01,-1716.63,-5.88431,15.9293,-1.95122,3830.75,8815.55,-677.547,-1.50875,7.40775,-0.95902
342,1,9570.96,-1140.87,-1729.79,-5.57975,16.5388,-2.04253,3858.2,8850.07,-697.879,-1.67667,7.33272,-1.40212
343,0,9500.27,-1084.66,-1733.4,-5.03128,16.3421,-2.07317,3883.37,8821.52,-768.427,-1.79862,7.98654,-2.51342
343,1,9485.83,-1035.55,-1719.06,-4.01065,15.2152,-2.25578,3870.26,8752.1,-747.066,-2.19449,8.23171,-3.04847
344,0,9485.83,-996.038,-1685.57,-2.66951,13.6911,-2.36273,3910.85,8694.61,-761.306,-2.18012,8.82519,-3.8402
344,1,9510.92,-918.295,-1690.28,-1.8149,12.6079,-2.83458,3908.57,8624.01,-781.688,-2.49937,9.02439,-4.13102
345,0,9476.33,-852.41,-1673.58,-1.28112,11.6476,-3.21607,3956.32,8561.74,-864.17,-2.48499,9.38962,-4.64852
345,1,9386.6,-751.928,-1634.1,-0.702011,10.3068,-3.74921,4006.64,8572.4,-901.398,-2.57598,9.55785,-4.95403
346,0,9300.38,-651.347,-1612.51,-1.14226,8.24988,-4.35897,4021.06,8494.78,-969.54,-2.89587,9.66448,-4.54348
346,1,9251.24,-645.206,-1487.01,-1.93495,5.21769,-5.06003,4043.77,8494.58,-1019.88,-3.03346,9.87774,-4.39025
347,0,9327.66,-690.659,-1392.32,-3.0472,2.10762,-5.83739,4126.28,8378.73,-1172.91,-3.45966,9.61946,-3.93372
347,1,9482.02,-772.012,-1370.69,-3.94714,0.611022,-6.03659,4108.52,8383.22,-1174.44,-3.96278,9.23828,-3.78049
348,0,9642.44,-916.768,-1376.65,-5.37896,0.228896,-6.03659,4259,8391.69,-1223.33,-5.13538,8.82678,-3.9631
348,1,9725.17,-993.532,-1411.33,-6.66008,1.50685,-5.80833,4300.01,8396.45,-1273.67,-5.48781,8.62821,-4.07004
349,0,9700.18,-1120.29,-1443.67,-7.63601,3.22949,-5.6404,4431.43,8395.28,-1326.31,-6.49216,8.09539,-5.36364
349,1,9572.22,-1287.86,-1440.13,-8.09412,3.93245,-5.70106,4437.72,8376.15,-1376.6,-6.96623,7.92683,-5.74703
350,0,9404.65,-1417.22,-1454.45,-8.03378,3.15699,-5.73171,4546.38,8241.07,-1388.64,-7.92525,7.88118,-7.96869
350,1,9243.02,-1489.12,-1532.16,-7.39433,0.628879,-5.91432,4562.19,8230.01,-1370.71,-8.36867,7.63759,-8.76517
351,0,9113.68,-1507.14,-1566.99,-6.46468,-3.08937,-6.24953,4596.79,8136.87,-1353.94,-8.87116,7.88055,-10.8805
351,1,9051.33,-1494.01,-1545.5,-5.30646,-7.2354,-6.70669,4682.93,8123.49,-1400.52,-9.25266,8.26172,-11.768
352,0,9062.02,-1471.27,-1468.96,-4.72609,-11.4427,-7.2858,4793.04,8019.57,-1356.42,-9.51188,8.90149,-12.9706
352,1,9094.33,-1447.33,-1431.76,-4.49719,-13.9609,-7.66729,4861.36,7964.34,-1346.72,-9.80144,9.31363,-13.6276
353,0,9221.06,-1376.78,-1448.45,-4.35992,-16.8708,-8.29174,4878.18,7840.02,-1382.6,-9.74109,10.349,-14.0391
353,1,9285.87,-1347.95,-1434.16,-4.83145,-18.7329,-8.61257,4882.97,7782.38,-1414.94,-9.78643,10.9447,-14.192
354,0,9219,-1277.42,-1279.96,-6.36958,-20.181,-8.7955,4866.25,7762.03,-1465.18,-9.4062,11.9496,-14.2986
354,1,9229.58,-1182.86,-1162.5,-8.79233,-23.3336,-8.79582,4870.98,7782.31,-1415.09,-9.54221,12.1648,-14.0554
355,0,9402.95,-1137.28,-1189.83,-10.5469,-24.8618,-8.46092,4942.71,7862.43,-1375.5,-9.54285,12.682,-14.1917
355,1,9449.93,-1072.7,-1278.38,-11.1886,-23.6458,-7.80583,4944.06,7886.5,-1390.99,-9.42089,12.9572,-14.5422
356,0,9329.21,-1021.18,-1291.69,-11.5088,-23.1707,-7.53065,5019.3,7947.45,-1380.29,-9.84677,13.7183,-15.5016
356,1,9153.27,-1021.11,-1248.64,-11.8136,-25.0425,-7.72827,5054.15,7946.39,-1324.08,-10,14.1004,-16.0666
357,0,9028.67,-1021.13,-1178.05,-12.0729,-28.7751,-8.26141,5106.75,7849.55,-1285.72,-10.0457,14.6485,-17.7564
357,1,9052.39,-980.494,-1162.38,-12.2711,-31.5519,-8.68855,5076.99,7826.63,-1282.09,-10.061,14.9084,-18.384
358,0,9223.39,-960.087,-1199.43,-12.8193,-34.6907,-9.14571,5129.46,7843.38,-1294.05,-10.2892,15.7608,-19.5103
358,1,9332.5,-946.925,-1265.24,-13.5356,-36.6445,-9.45091,5134.4,7812.34,-1304.83,-10.5941,15.7627,-19.9237
359,0,9405.53,-932.56,-1344.24,-14.2673,-38.1992,-9.74046,5081.77,7685.59,-1289.31,-10.4425,15.899,-20.9434
359,1,9480.94,-939.706,-1479.42,-15.7295,-39.8759,-10.0453,5073.3,7675.76,-1240.27,-10.5028,16.0669,-21.0979
360,0,9539.63,-954.071,-1575.29,-17.9846,-40.8984,-10.2133,4993.25,7527.64,-1207.91,-9.54443,15.4584,-21.9496
360,1,9531.35,-986.361,-1637.56,-20.5606,-41.5541,-10.4265,4915.38,7510.55,-1180.38,-9.25297,14.8787,-21.9822
361,0,9413,-1071.27,-1644.83,-22.863,-43.1682,-10.6248,4837.59,7508.24,-1244.86,-8.72047,13.7974,-22.2098
361,1,9253.8,-1161.08,-1631.67,-24.4647,-45.8042,-10.899,4835.06,7474.75,-1283.27,-8.44528,12.9278,-22.2714
362,0,9112.5,-1250.85,-1599.38,-25.6388,-49.1266,-10.93,4747.86,7508.14,-1331.1,-8.14072,10.8722,-22.4844
362,1,9014.28,-1331.08,-1611.26,-25.9603,-53.0131,-10.9146,4705.82,7515.41,-1352.71,-7.86617,10.0156,-22.6523
363,0,8935.26,-1325.23,-1557.53,-25.8843,-55.531,-10.869,4748.82,7538.1,-1455.5,-8.39837,7.97597,-22.9112
363,1,8901.67,-1302.47,-1529.91,-25.5798,-58.7758,-10.945,4760.88,7496.33,-1496.36,-8.64322,7.04316,-22.8965
364,0,8882.51,-1290.49,-1523.92,-25.1226,-62.5713,-11.0213,4813.45,7490.24,-1581.23,-9.70855,6.03817,-23.0028
364,1,8927.89,-1212.79,-1569.32,-24.5435,-65.454,-11.2649,4820.74,7447.25,-1634,-10.2892,5.32084,-23.0031
365,0,8933.98,-1076.39,-1671,-24.4359,-67.5585,-12.0263,4860.16,7402.92,-1678.27,-11.142,4.90901,-22.8509
365,1,8898.11,-920.776,-1785.93,-25.1817,-70.2858,-13.2148,4845.91,7371.78,-1733.33,-11.4024,4.72577,-22.7592
366,0,8851.43,-881.066,-1872.17,-26.1573,-73.1366,-14.267,4746.66,7192.48,-1812.3,-12.0872,4.3299,-22.3787
366,1,8767.69,-834.46,-1945.2,-26.6764,-75.1654,-15.2883,4698.65,7138.31,-1830.37,-12.2714,4.02471,-22.1648
367,0,8646.83,-790.136,-2092.31,-27.2248,-77.4359,-16.2792,4552.82,7010.45,-1843.51,-12.4844,3.27863,-21.9059
367,1,8453.01,-784.095,-2261.11,-27.9259,-80.9249,-17.0266,4491.55,6985.05,-1837.57,-12.6979,2.68356,-21.5554
368,0,8262.63,-767.373,-2496.82,-28.2467,-83.762,-17.3777,4540.51,7041.26,-1880.56,-13.4287,1.69358,-20.8699
368,1,8252.75,-782.867,-2622.74,-28.8405,-89.2295,-17.5303,4526.29,7079.62,-1899.79,-13.7955,1.6307,-20.8077
369,0,8289.88,-808.012,-2653.95,-29.9375,-94.5059,-17.4697,4493.95,7061.74,-1875.9,-15.0741,1.57036,-20.9906
369,1,8283.96,-842.709,-2736.44,-31.2483,-98.197,-17.1195,4493.9,7013.88,-1831.63,-15.5335,1.75265,-21.2192
370,0,8325.76,-913.282,-2909.9,-31.631,-101.079,-16.51,4528.58,7115.37,-1765.82,-16.5531,2.60536,-21.874
370,1,8395.18,-933.739,-3138.49,-31.6007,-102.727,-15.8393,4550.16,7178.97,-1747.77,-17.3011,3.18542,-22.3014
371,0,8380.96,-930.154,-3284.7,-32.2245,-103.094,-15.0316,4596.79,7312.87,-1643.8,-18.4434,4.75357,-23.6107
371,1,8355.79,-1014.99,-3406.79,-32.576,-104.799,-14.8171,4586.14,7394.42,-1544.37,-19.1001,5.42652,-24.4809
372,0,8462.11,-1115.57,-3624.5,-32.3024,-107.055,-14.9084,4140.33,7407.66,-1347.04,-19.4356,6.2639,-26.9168
372,1,8624.89,-1171.91,-3916.52,-31.9669,-107.896,-14.939,3950.51,7393.32,-1280.91,-19.4209,6.43309,-27.8655
373,0,8692.11,-1168.4,-4226.56,-31.799,-107.942,-14.8477,3545.29,7435.11,-1102.83,-18.8424,5.85461,-28.3377
373,1,8646.75,-1081.12,-4641.77,-31.54,-107.47,-14.9084,3328.09,7518.87,-975.755,-18.4303,5.48812,-28.293
374,0,8650.21,-996.087,-5041.69,-31.8286,-108.915,-15.3499,3033.91,7864.39,-741.372,-17.5776,4.33117,-28.0491
374,1,8718.38,-948.154,-5313.63,-31.9056,-111.369,-15.6704,2919.77,8087.41,-659.621,-16.9062,3.78081,-27.8965
375,0,8936.02,-1028.15,-5741.85,-31.5707,-112.56,-15.8687,2610.2,8642.17,-365.619,-15.2161,2.30428,-27.318
375,1,9152.77,-1101.26,-6109.58,-29.546,-111.237,-15.9603,2430.25,8844.13,-200.034,-14.7864,1.78362,-27.2255
376,0,9289.35,-1126.45,-6481.8,-27.1677,-108.632,-16.2495,2145.65,9330.58,127.562,-13.3105,1.0835,-27.5757
376,1,9350.5,-1119.31,-6862.49,-25.2158,-105.142,-16.4328,2030.33,9540.81,276.45,-12.5766,0.944964,-28.0482
377,0,9368.5,-1047.58,-7194.17,-22.5648,-103.294,-16.7373,1669.37,9898.24,514.368,-11.2217,0.519084,-28.3077
377,1,9528.65,-863.389,-7556.81,-19.6836,-101.162,-16.6467,1454.65,10012.6,642.75,-10.6101,0.0462854,-28.6276
378,0,9710.66,-622.815,-8064.15,-18.0504,-96.5314,-16.0375,1121.01,10399.7,936.852,-9.36182,0.0303296,-29.2217
378,1,9800.58,-345.138,-8614.82,-18.0178,-91.9416,-15.4428,958.983,10576.3,1119.13,-8.73516,0.426197,-29.7555
379,0,9662.07,-100.855,-9011.33,-19.2054,-84.2797,-14.7571,712.666,11151.2,1461.12,-8.0194,1.73575,-31.0194
379,1,9542.21,175.595,-9173.25,-20.0754,-77.1427,-13.8884,583.081,11392.7,1605.24,-7.71358,2.45372,-31.4481
380,0,9350.85,761.665,-9334.76,-23.1657,-71.4704,-13.339,159.916,11894.8,1923.21,-7.40901,4.06751,-32.833
380,1,9165.23,1288.66,-9527.47,-27.6616,-66.3785,-13.6882,-90.781,12157.6,2086.44,-7.22577,4.61882,-33.4753
381,0,8989.26,1687.43,-10042.9,-30.4393,-61.6067,-14.6632,-469.871,13098.3,2515.6,-7.28643,5.82112,-33.5823
381,1,8815.67,1964.13,-10586.5,-32.4822,-58.7834,-15.8977,-677.398,13564.1,2720.89,-7.40838,6.35647,-33.5063
382,0,8858.4,1860.58,-11049.9,-34.5857,-57.3187,-17.4065,-1045.68,14432,3173.97,-7.98686,6.58505,-32.4713
382,1,9052.19,1421.62,-11287.2,-34.0263,-54.0448,-18.0788,-1158.79,14830.7,3429.5,-8.35335,6.87461,-31.8146
383,0,9250.95,984.551,-11368.8,-30.8737,-47.6618,-17.5773,-1388.24,15439.2,3818.14,-8.73421,6.95122,-29.8812
383,1,9438.9,651.62,-11464.5,-28.7521,-42.8863,-16.8302,-1515.44,15650.9,4007.77,-8.93277,6.95122,-28.5379
384,0,9532.43,294.971,-11510.1,-26.5276,-34.951,-15.0029,-1829.85,15980.7,4365.25,-8.32428,6.90557,-25.234
384,1,9530.15,100.73,-11473.1,-25.0472,-24.9523,-12.1686,-1969.16,16132.1,4523.76,-8.06411,7.11851,-23.3856
385,0,9405.83,-29.76,-11386.9,-24.4365,-15.941,-9.48503,-2265.62,16379.5,4646.96,-5.7205,6.09946,-17.9054
385,1,9326.68,-173.387,-11201.6,-23.9641,-9.21522,-7.33493,-2396.53,16461.3,4700.98,-4.52815,5.32084,-15.3368
386,0,9299.1,-225.03,-11025.5,-24.6632,-1.83938,-5.32273,-2458.76,16548.6,4703.42,-1.55978,2.53507,-8.98917
386,1,9272.78,-358.907,-10816.1,-25.213,4.50461,-3.94967,-2432.58,16602.5,4730.89,-0.381493,1.09851,-6.35774
387,0,9337.26,-516.949,-10569.5,-24.5288,8.94304,-3.1107,-2073.97,16600.2,4679.57,2.25168,-1.2767,-0.908469
387,1,9483.22,-641.497,-10312.2,-22.2596,12.9065,-2.33334,-1908.27,16625.3,4587.41,3.56629,-2.05785,1.90367
388,0,9667.54,-713.398,-10139.6,-19.8962,17.9655,-1.35805,-1371.58,16412.6,4298.05,6.86956,-2.80362,8.51053
388,1,9744.35,-788.784,-9945.79,-18.5988,21.5206,-0.549728,-1114.64,16273.5,4252.03,8.33771,-2.95748,11.3859
389,0,9768.32,-776.974,-9763.78,-16.6645,25.9083,0.958078,-864.691,15778.6,4112.31,11.9909,-2.88118,16.7138
389,1,9819.74,-669.347,-9802.92,-13.9975,30.0103,2.63507,-671.778,15490.7,3970.94,13.7642,-2.7289,19.2364
390,0,9849.72,-543.645,-9895.12,-11.0557,34.6278,4.64663,-388.282,15128.3,3679.14,16.7939,-2.45466,23.3927
390,1,9872.46,-315.178,-10121.1,-9.25487,40.0994,6.78078,-277.777,14920.8,3569.79,18.2461,-2.3324,25.1517
391,0,9788.85,-73.3268,-10397.7,-8.76548,46.4549,9.41711,-96.0655,14378.1,3207.65,20.7886,-2.72795,27.4049
391,1,9615.36,118.284,-10661,-9.17604,52.5838,11.4915,11.8843,14160.6,3059.84,21.9963,-2.95716,28.4293
392,0,9380.8,234.508,-10758.3,-10.4249,57.9659,12.3621,207.986,13807.9,2777.74,23.595,-3.6726,29.2214
392,1,9002.74,280.084,-10751.2,-11.5688,62.1444,12.5913,372.119,13601.6,2585.91,24.2223,-4.08505,29.6795
393,0,8463.06,283.719,-10727.3,-12.0119,63.1098,11.8915,801.376,13405.4,2286.92,24.3596,-4.2833,30.4866
393,1,8009.14,261.005,-10853.9,-12.1645,59.138,11.1442,955.249,13317.8,2154.86,24.3446,-4.37492,30.6404
394,0,7955.85,178.498,-10945,-12.2408,54.7462,10.8387,1016.25,13066.8,1939.65,24.0554,-5.39461,29.4228
394,1,8180.63,138.888,-10774.2,-11.0691,48.9716,10.8383,1030.71,12943.1,1829.24,23.9634,-6.23389,28.6592
395,0,8325.71,101.809,-10589.8,-9.20985,45.7346,10.7167,1284.05,12867.7,1653.48,23.1417,-7.36115,27.2583
395,1,8419.09,69.469,-10444.9,-7.53254,44.1329,10.5794,1383.82,12847.3,1556.31,22.6376,-7.81989,26.6467
396,0,8488.56,15.6429,-10245.1,-6.49501,42.4109,10.5488,1359.96,12779.2,1445.07,21.9218,-8.5963,24.8049
396,1,8644.02,7.17021,-9963.86,-6.14353,41.3578,10.9597,1350.33,12720.5,1408.99,21.5247,-8.79581,23.8421
397,0,8873.79,99.2045,-9662.19,-6.18887,42.6651,11.6454,1432.79,12719.2,1235.71,20.7786,-9.51094,21.6195
397,1,8978.18,129.287,-9475.25,-6.12821,46.9599,12.3771,1471.22,12787.3,1160.02,20.2292,-9.7561,20.6864
398,0,8967.53,79.0954,-9308.88,-4.77363,51.0166,12.5153,1578.8,12938,1064.38,19.1632,-10.3496,18.7837
398,1,8787.02,108.856,-8968,-1.22488,53.1839,12.1804,1617.28,12981.4,1023.54,18.7045,-10.6401,17.7599
399,0,8671.9,325.265,-8620.75,0.958394,52.8671,11.9362,1356.77,12916.8,1002,18.1107,-11.2642,15.8872
399,1,8763.78,406.989,-8473.19,2.39148,51.1154,11.4337,1251,12841.4,1028.25,17.6529,-11.6917,15.0766
400,0,8819.01,401.047,-8261.52,3.10913,50.838,10.55,954.591,12558,1031.91,16.9675,-12.4074,14.8174
400,1,8907.49,440.459,-7824.9,3.8252,51.7364,10.2592,832.028,12433.2,1061.77,16.677,-12.5307,14.7561
401,0,9103.66,573.207,-7549.18,4.29831,54.9797,10.0156,787.754,12112.8,1122.79,16.3724,-11.9065,16.2626
401,1,9167.39,652.352,-7505.81,3.61415,62.4583,9.3912,707.604,11977,1110.96,16.3718,-11.7073,17.4074
402,0,8865.06,705.024,-7458.02,2.02973,70.0212,8.61383,717.008,11797.7,1086.99,16.8133,-9.74425,20.2698
402,1,8479.55,650.143,-7312.12,-0.103789,73.2445,8.09507,699.156,11705.3,1139.54,17.3164,-8.44623,22.0716
403,0,8248.26,559.164,-7207.85,-1.21857,73.4913,7.75954,596.317,11471,1076.34,18.8086,-6.08603,25.6651
403,1,8152.34,421.578,-7130.03,-1.72201,73.506,7.63728,536.351,11374.9,1055.83,19.7248,-5.00063,27.1335
404,0,8113.99,322.125,-6996.06,-2.14884,74.2214,7.75891,265.011,11252.9,1097.67,22.2977,-3.55412,30.5431
404,1,8106.77,204.871,-6835.66,-2.80393,76.2317,7.98749,177.171,11210.9,1114.49,23.2924,-2.83584,31.9203
405,0,8131.86,107.851,-6748.14,-2.8965,79.3859,8.36835,209.437,11191.7,1101.36,25.4537,-2.28738,35.3449
405,1,8136.7,57.5104,-6703.81,-1.45062,82.8005,8.84084,284.798,11268.2,1089.37,26.3868,-2.08849,36.8287
406,0,8078.14,12.0329,-6597.39,0.120059,85.439,8.82646,320.798,11288.7,993.755,27.5591,-2.02752,39.0513
406,1,8048.13,-35.8511,-6403.57,1.44651,87.1779,8.55223,329.197,11243.2,940.958,28.2464,-1.96654,40.1213
407,0,8091.12,-55.0543,-6241.87,2.86396,88.6567,8.24735,269.453,11049.5,926.568,28.3993,-2.31644,42.7092
407,1,8185.64,39.3371,-6105.39,3.96215,90.9418,8.03378,213.146,10932,934.917,28.1864,-2.71294,43.8562
408,0,8247.96,161.454,-5956.97,3.75079,93.6398,7.48563,226.209,10891.3,813.048,27.7445,-3.44402,47.1591
408,1,8356.79,227.387,-5875.45,3.4606,96.2011,7.13446,274.068,10830.3,785.273,27.485,-3.74984,48.5056
409,0,8504.01,246.59,-5843.08,3.55159,99.5228,6.70795,391.272,10640.1,711.214,25.9781,-4.46528,49.9672
409,1,8603.46,259.752,-5794.04,3.68887,102.116,6.40276,501.455,10535.8,688.327,25.1226,-5.01469,50.6551
410,0,8634.67,281.288,-5819.04,3.62821,106.655,6.15885,688.054,10172.4,657.264,23.6761,-5.57848,52.3296
410,1,8588.09,255.038,-5796.42,2.95842,112.279,5.77799,720.692,9991.11,589.073,22.9121,-5.77736,53.4137
411,0,8456.52,240.623,-5737.78,2.19607,116.733,5.30551,1007.45,9779.44,483.777,21.7092,-6.20356,55.2411
411,1,8321.21,185.643,-5661.2,1.2361,119.251,5.09162,1149.14,9694.16,447.728,21.0676,-6.1132,55.8384
412,0,8288.73,81.5514,-5687.35,0.473428,120.03,4.92402,1335.67,9428.81,398.715,19.8343,-6.40181,55.8537
412,1,8385.52,2.48088,-5677.89,0.304878,120.989,4.8324,1389.84,9288.4,332.881,19.4512,-6.6157,55.5798
413,0,8493.3,-68.1419,-5640.79,-0.0146921,123.518,5.31926,1682.62,9101.85,229.992,18.4012,-6.96591,53.7987
413,1,8561.59,-93.3615,-5606.07,-0.167604,127.829,6.03564,1852.99,9023.78,197.528,17.6836,-7.16448,53.0491
414,0,8489.99,-124.449,-5493.68,-0.593803,131.398,6.76735,2077.82,8625.79,153.303,16.4197,-7.01251,50.3856
414,1,8367.9,-227.288,-5372.74,-0.914319,132.469,6.99688,2173.89,8501.8,77.9168,15.7627,-6.76861,49.147
415,0,8268.49,-394.808,-5207.62,-1.34083,132.607,7.56003,2298.24,8328.53,0.0990629,15.1229,-5.97687,47.8831
415,1,8249.21,-490.725,-5100.95,-0.961234,132.074,8.29174,2340.33,8244.48,2.35705,15.076,-5.68606,47.4087
416,0,8264.76,-586.443,-5012.38,-0.153543,131.571,9.38867,2506.44,8175.11,-83.6361,14.5741,-4.52941,46.6933
416,1,8230.14,-645.182,-4910.64,0.380546,131.692,10.7451,2604.82,8090.12,-143.603,14.2076,-3.82677,46.2352
417,0,8173.88,-602.235,-4794.54,0.350846,130.673,11.828,2794.93,7860.52,-242.857,13.0963,-2.71515,44.8803
417,1,8202.46,-533.994,-4588.79,0.0766138,128.296,12.3014,2922.01,7762.05,-298.035,12.6069,-2.01283,44.086
418,0,8295.77,-466.956,-4375.67,-0.684793,127.485,12.6976,3134.88,7716.57,-435.522,11.374,-0.931534,41.1786
418,1,8354.51,-514.642,-4119.58,-1.00594,127.713,13.1245,3252.43,7661.52,-468.085,10.4278,-0.0162688,38.783
419,0,8304.39,-486.11,-3864.56,-1.03659,128.627,13.6882,3277.65,7392.54,-500.326,9.14824,1.23294,33.1339
419,1,8187.14,-429.827,-3651.42,-1.08224,129.176,14.161,3201.18,7264.08,-494.434,8.41527,1.95059,30.2155
420,0,8125.97,-488.293,-3557.86,-0.823644,129.131,14.4509,2887.9,6848.11,-456.151,7.79051,2.66666,24.0192
420,1,8152.19,-541.04,-3557.76,0.227003,128.72,14.8318,2745.03,6709.76,-420.226,7.34804,2.95716,21.4797
421,0,8189.32,-579.347,-3562.57,2.32924,129.511,14.939,2578.82,6586.66,-429.728,6.89088,3.21607,19.8196
421,1,8072.27,-528.027,-3537.48,4.29642,131.917,15.0303,2517.52,6556.5,-453.67,6.81395,3.33834,19.3749
422,0,7685.98,-382.092,-3353.38,5.16698,132.439,14.924,2399.19,6258.96,-459.687,6.64666,3.17105,19.8011
422,1,7416.31,-253.934,-3183.28,5.30488,129.776,14.5128,2317.66,6071.84,-463.272,6.44841,3.01845,19.9847
423,0,7335.88,-167.693,-3099.37,5.5788,127.442,13.7055,2195.67,5827.86,-514.667,5.94591,2.66824,20.9587
423,1,7308.33,-87.4936,-3026.37,6.12726,126.951,12.7908,2073.53,5701.88,-535.098,6.02095,2.46967,21.4175
424,0,7341.75,-113.644,-2956.93,6.91963,128.23,12.1045,2123.52,5508.16,-561.397,5.1845,1.43466,22.1026
424,1,7222.34,-208.159,-2911.4,8.96027,130.53,11.4947,2264.72,5384.67,-537.554,4.74109,0.960603,22.3171
425,0,6934.03,-205.951,-2783.46,10.3949,131.843,11.1132,2521.91,5244.7,-580.501,4.05598,1.09725,22.0888
425,1,6536.71,-196.325,-2517.89,11.3099,131.48,10.5344,2577.39,5187.07,-587.795,3.56755,1.06723,21.8752
426,0,6294.59,-167.644,-2373.97,11.6157,128.587,9.77237,2639.49,4847.64,-641.547,2.92778,1.17354,20.5053
426,1,6076.78,-125.751,-2182.61,11.0072,124.67,9.07099,2630.09,4707.05,-639.289,2.6526,1.21951,19.6045
427,0,5915.05,-240.401,-1950.38,10.747,121.559,8.81114,2597.75,4356.84,-660.75,2.43934,2.08692,18.1273
427,1,5826.38,-278.931,-1837.64,11.3252,118.982,8.64353,2640.72,4160.07,-699.057,2.65197,2.60631,17.3634
428,0,5851.35,-241.876,-1873.37,11.6614,116.893,8.41495,2618.13,3945.97,-715.854,3.10913,3.27642,16.7083
428,1,5937.5,-150.971,-1981.05,11.6617,116.813,8.07974,2647.91,3883.4,-711.09,3.27736,3.65822,16.3874
429,0,5961.56,-42.0408,-2075.66,10.6876,117.956,7.85085,2669.52,3779.43,-780.386,4.11444,4.2217,16.2045
429,1,5871.93,7.14549,-2054.3,9.49845,119.16,7.53096,2661.17,3773.21,-808.037,4.48155,4.57286,16.2042
430,0,5766.56,-14.3157,-2039.86,8.56818,119.68,7.57599,2729.27,3807.93,-834.336,5.06003,5.13633,16.1282
430,1,5644.5,-113.57,-2011.18,7.57756,120.35,7.71326,2767.67,3848.62,-889.366,5.33521,5.21357,16.0063
431,0,5551.06,-165.163,-1994.38,7.59099,120.229,7.83521,2790.41,3970.59,-930.104,5.59412,5.36554,15.9756
431,1,5487.58,-236.915,-1945.37,7.81989,118.159,7.59194,2821.52,4054.5,-956.453,5.62508,5.10726,15.93
432,0,5559.19,-333.861,-1890.29,7.54629,114.807,6.90651,2955.43,4263.74,-1012.66,5.70106,4.17825,15.8233
432,1,5767.32,-481.024,-1805.35,7.53033,111.665,6.52471,2968.86,4407.59,-1036.68,5.95997,3.71983,15.6101
433,0,6046.18,-511.181,-1727.51,7.8349,110.595,6.41776,3113.39,4710.12,-1096.45,5.67136,1.87807,15.0466
433,1,6288.08,-478.89,-1652.1,7.56161,110.214,5.99157,3183.06,4827.86,-1133.62,5.32052,1.09788,14.6041
434,0,6498.79,-530.211,-1514.54,6.61727,109.894,5.39713,3336.07,5076.49,-1139.64,4.74172,-1.42867,13.3709
434,1,6715.45,-643.879,-1392.37,5.93059,110.685,5.38086,3381.82,5167.87,-1146.81,4.39056,-2.94089,12.44
435,0,6864.02,-685.92,-1318.09,5.38181,111.478,5.56379,3549.11,5379.41,-1163.56,3.69013,-5.54469,10.6582
435,1,7013.61,-657.264,-1187.72,4.23954,111.327,6.06629,3620.01,5513.74,-1232.9,3.24735,-6.798,10.1676
436,0,7089.17,-596.243,-944.865,3.21765,110.307,6.58474,3793.32,5746.92,-1268.9,2.34898,-9.73605,8.35681
436,1,7111.96,-421.652,-851.182,3.30738,107.763,6.61601,3860.63,5785.64,-1316.74,1.89056,-11.4468,7.92652
437,0,7155,-56.8019,-821.248,0.995029,102.31,5.62666,4065.01,5925.39,-1388.54,0.870557,-13.99,7.30301
437,1,7318.81,-91.9355,-588.166,-3.10409,95.436,3.84399,4121.64,6022.53,-1386.28,0.22921,-15.4866,7.30144
438,0,7631.07,-300.194,-401.221,-4.43558,89.9607,2.57756,4487.29,6450.47,-1483.03,-1.11068,-17.4209,8.33676
438,1,7937.6,-429.629,-320.897,-3.91871,85.5695,1.76924,4625.57,6631.86,-1517.92,-2.07223,-18.2161,8.97811
439,0,8247.62,-444.143,-306.458,-3.4456,81.3622,0.854919,4949.46,6843.49,-1539.43,-4.12787,-19.6623,10.5919
439,1,8592.33,-458.459,-267.022,-4.03845,77.931,0.0162677,5121.09,6967.03,-1589.68,-4.84741,-20.2133,11.5084
440,0,8885.73,-521.837,-189.253,-5.45527,76.1755,-0.68511,5379.36,7133.27,-1682.99,-6.15633,-20.5178,13.2899
440,1,9097.72,-645.058,-70.7959,-6.31019,75.4428,-1.17323,5505.39,7193.36,-1684.36,-6.67667,-20.7924,14.0241
441,0,9249.82,-712.219,4.71419,-6.28081,74.6658,-1.50875,5818.59,7587.75,-1783.49,-7.34646,-21.1732,15.318
441,1,9302.64,-766.07,47.8346,-6.99562,73.1273,-1.76798,6004.51,7790.61,-1848.27,-7.56098,-21.2348,15.5948
442,0,9383.94,-862.967,121.993,-8.30612,70.4916,-1.96623,6345.29,8112.24,-1943.94,-7.9262,-20.9456,15.8227
442,1,9566.96,-933.664,118.556,-9.70856,66.6974,-1.78393,6496.59,8204.94,-1969.24,-8.41401,-20.9906,15.7777
443,0,9842.18,-994.71,-8.1757,-11.8871,62.7946,-1.25079,6727.34,8374.62,-1968.03,-8.85616,-20.3518,14.3621
443,1,10207.2,-1039.03,-184.119,-14.8283,59.8662,-0.869296,6781.61,8439.55,-2011.06,-9.19168,-20.3502,13.4916
444,0,10401.4,-1012.81,-319.471,-18.4859,57.7921,-0.883989,6714.64,8273.46,-1968.13,-9.40526,-19.5594,10.5232
444,1,10390.9,-1054.55,-381.82,-22.0078,55.9932,-1.00594,6593.8,8209.73,-1902.27,-9.26861,-19.2683,9.02534
445,0,10190,-1147.89,-303.021,-25.6964,53.0379,-1.2192,6509.92,8146.38,-1832.85,-9.38993,-18.0357,5.37184
445,1,9840.66,-1442.04,-65.0019,-27.1029,50.0038,-1.23484,6500.25,8172.53,-1807.63,-9.58818,-17.348,3.43122
446,0,9489.86,-1654.18,273.673,-25.1561,43.5617,-1.12821,6273.2,8041.18,-1654.65,-10.7298,-15.2474,-1.62283
446,1,9307.63,-1666.41,507.324,-20.4338,35.7571,-1.14321,6149.59,7977.5,-1607.7,-11.2345,-14.5732,-4.14477
447,0,9103.05,-1581.5,910.382,-15.5701,28.2108,-1.34115,5940.35,7911.74,-1476.25,-12.0566,-12.0166,-9.29044
447,1,8919.82,-1480.94,1348.58,-11.5598,21.5023,-1.95028,5886.13,7948.65,-1471.17,-12.454,-10.7477,-11.6907
448,0,8881.29,-1380.39,1681.54,-7.87058,15.9062,-2.40807,5739.16,8050.36,-1276.47,-13.687,-7.04882,-17.2013
448,1,8950.61,-1283.42,1882.82,-5.35337,12.4731,-2.59131,5670.7,8063.7,-1192.34,-13.9484,-5.26017,-19.5569
449,0,9055.93,-1162.55,1950.03,-4.4975,12.2248,-2.53065,5230.88,7951.33,-1044.12,-13.9024,-1.7283,-23.2714
449,1,9144.55,-1069.12,1987.14,-4.98374,14.6607,-2.22608,5013.58,7836.36,-985.233,-13.5829,-0.153226,-24.6338
450,0,9211.61,-1002.05,1932.23,-6.36991,19.1247,-1.86023,4666.85,7763.28,-963.697,-11.9691,1.87178,-24.6038
450,1,9234.42,-957.73,1813.77,-7.49875,22.6029,-1.54003,4479.69,7779.9,-878.808,-11.4178,2.77392,-23.7971
451,0,9204.56,-944.519,1612.79,-9.1135,28.0559,-0.732967,4324.15,7797.9,-791.389,-8.75457,3.77892,-19.1539
451,1,9139.96,-932.56,1448.68,-10.258,33.5603,0.0600314,4270.08,7836.16,-774.518,-7.31802,4.31363,-16.8612
452,0,9075.3,-914.61,1330.12,-11.0813,37.5259,0.791739,4287.98,7944.99,-714.774,-3.84713,4.98374,-10.4679
452,1,8948.52,-888.286,1209.23,-12.1022,38.9168,1.24953,4205.57,7973.89,-690.733,-2.24172,4.95466,-7.7755
453,0,8861.03,-841.63,1106.24,-12.9259,37.4419,1.56973,4175.49,8001.37,-754.062,0.255134,4.9237,-3.04133
453,1,8851.35,-803.298,1053.5,-13.6576,34.5163,1.692,4182.66,8021.75,-750.625,1.9953,5.07599,-0.0178401
454,0,8907.53,-837.896,1043.87,-14.0241,31.2543,1.61601,4256.77,8097.07,-774.469,4.1432,4.80238,4.1857
454,1,9040.31,-949.134,1004.44,-14.131,27.8246,1.3571,4277.25,8103.21,-788.883,5.25828,4.46686,5.70075
455,0,9175.61,-1042.57,1023.47,-14.0094,24.3947,1.09788,4358.5,8215.5,-858.204,6.70512,3.52284,8.07534
455,1,9337.17,-1170.58,1113.17,-13.8265,21.0713,0.94528,4432.78,8291.06,-888.236,7.31676,3.32301,8.97843
456,0,9592,-1264.04,1189.83,-13.5522,19.2395,1.00594,4624.1,8593.49,-926.494,7.46936,2.48625,8.93309
456,1,9842.25,-1351.41,1264.04,-12.9278,17.9894,0.853974,4683.06,8680.2,-956.453,7.63696,2.14947,8.85679
457,0,9977.71,-1399.37,1290.46,-12.1048,18.1395,0.929643,4797.78,8819.99,-1016.25,6.49595,1.17543,6.87838
457,1,10063.9,-1457.98,1267.77,-11.5707,19.0688,1.06692,4847.04,8929.07,-1059.39,6.00626,1.08192,5.76298
458,0,10073.6,-1464.07,1230.67,-10.6873,19.9684,1.32583,4811.22,8981.79,-1035.55,4.60602,0.702006,2.27708
458,1,9980.38,-1464.05,1260.48,-9.92465,20.046,1.21983,4805.15,8978.28,-1074.91,4.05504,0.503128,0.656353
459,0,9842.75,-1472.42,1323.91,-9.02565,18.3108,1.02158,4707.17,8919.69,-1059.49,2.88306,0.12258,-0.973095
459,1,9795.89,-1406.71,1369.43,-8.09569,15.7352,1.20388,4687.82,8851.45,-1055.83,2.40869,0.136959,-1.23515
460,0,9846.06,-1308.56,1411.33,-7.27237,14.4218,1.4631,4588.67,8777.24,-1058.24,1.83021,-0.136645,-1.34115
460,1,9928.64,-1247.44,1332.53,-6.52534,14.253,1.707,4532.26,8757.99,-1058.24,1.82895,-0.335209,-1.40244
461,0,10018.4,-1282.01,1155.46,-5.88493,15.227,1.67699,4482.02,8661.19,-1036.73,1.84459,-0.685426,-1.21983
461,1,9768.81,-1208.03,1088.2,-4.45342,19.338,1.32677,4442.48,8574.93,-957.804,1.55535,-0.88399,-0.884618
462,0,9533.96,-1156.44,1118.03,-3.65917,20.6098,1.44778,4455.57,8564.05,-976.76,1.60037,-0.868981,0.0747258
462,1,9313.74,-1152.8,1165.91,-2.71483,18.5097,1.34178,4459.21,8534.19,-973.274,1.92026,-0.853659,0.45716
463,0,9173.53,-1071.55,1228.14,-2.80425,15.3396,1.23484,4483.1,8469.58,-978.013,2.14916,-0.397128,0.944336
463,1,9314.35,-1065.38,1209.13,-3.61163,13.5991,1.26517,4534.54,8465.87,-1013.89,2.24078,0.121322,1.05191
464,0,9496.39,-1015.24,1136.15,-4.20669,15.2558,1.55441,4620.69,8395.4,-988.867,2.57567,1.24827,0.990933
464,1,9423.78,-1013.91,1194.57,-5.28799,17.1016,1.60069,4612.48,8370.13,-976.834,2.68293,1.58537,0.97561
465,0,9223.94,-1041.44,1314.26,-6.29456,15.8108,1.58537,4619.58,8427.49,-919.472,3.0025,2.86365,1.29518
465,1,9252.25,-1027.15,1363.47,-6.93527,13.2352,1.58537,4632.77,8400.14,-885.879,3.29237,3.4753,1.26548
466,0,9383.89,-1066.54,1401.75,-7.34709,12.424,1.63102,4606.49,8287.7,-870.311,3.85584,4.54096,1.17386
466,1,9436.71,-1096.52,1502.21,-7.66729,12.6976,1.64634,4553.85,8298.23,-805.754,4.07004,4.9237,1.11288
467,0,9521.6,-1119.26,1596.82,-7.97217,12.6223,1.73765,4571.67,8348.52,-796.054,5.04408,5.9434,1.09756
467,1,9594.68,-1136.03,1636.41,-8.09444,12.4697,1.58568,4557.41,8353.38,-814.004,5.45716,6.55441,1.32583
468,0,9664.1,-1075.11,1646.01,-8.10976,13.1695,1.34178,4495.21,8494.38,-829.572,6.40087,7.28549,1.12852
468,1,9700.08,-1021.18,1625.7,-8.7489,14.5103,1.09788,4477.16,8535.34,-786.576,6.79863,7.5,0.990933
469,0,9645.15,-1006.77,1528.85,-9.55691,15.5172,1.03659,4394.7,8590.3,-846.221,7.14884,7.68262,0.473426
469,1,9592.43,-962.543,1470.09,-10.03,15.3208,0.94528,4406.46,8645.4,-839.223,7.48437,7.74391,0.396184
470,0,9592.35,-966.03,1385.18,-10.3959,14.7264,0.868981,4355.16,8700.46,-889.341,7.60663,7.69825,0.28987
470,1,9606.72,-986.386,1327.64,-10.8987,14.5732,0.808006,4383.7,8707.72,-927.722,7.80457,7.59162,0.335209
471,0,9624.67,-1019.88,1302.47,-11.3562,14.2993,0.701377,4192.6,8662.3,-951.664,7.68324,7.05879,0.685426
471,1,9654.58,-1000.83,1268.98,-11.5547,14.0247,0.716385,4162.25,8626.35,-957.681,7.485,6.66198,1.11225
472,0,9655.83,-1019.88,1187.65,-12.2702,14.0091,0.594748,4150.39,8683.66,-1018.63,7.57599,5.48969,1.90431
472,1,9646.25,-1065.36,1156.41,-13.4131,14.4353,0.457475,4131.21,8723.24,-999.647,7.5763,4.89369,2.22545
473,0,9615.16,-1102.49,1136.08,-14.176,14.7558,0.335523,4134.77,8704.16,-1050.94,7.19575,3.49314,2.98655
473,1,9555.35,-1110.91,1108.55,-14.4206,14.8627,0.167919,4130.01,8677.82,-1090.53,6.98187,2.77486,3.36867
474,0,9534.92,-1186.2,1137.18,-14.3599,14.0106,-0.015008,4210.06,8596.51,-1161.08,6.54034,1.17638,4.05378
474,1,9540.88,-1175.61,1149.22,-13.9641,12.8065,-0.106629,4248.49,8628.6,-1150.47,6.44809,0.670732,4.17699
475,0,9568.38,-1174.34,1149.22,-13.1567,12.0891,-0.350217,4341.73,8597.67,-1204.17,5.82427,-0.333636,4.2833
475,1,9569.64,-1127.76,1149.22,-12.4247,11.8143,-0.746401,4361.06,8587.99,-1233,5.70106,-0.990304,4.46623
476,0,9563.65,-1075.06,1138.46,-11.7996,11.4031,-1.08192,4425.56,8565.3,-1271.26,5.18387,-1.37148,4.10132
476,1,9526.59,-1027.17,1156.36,-11.2811,10.9609,-1.34115,4484.28,8549.71,-1294.05,4.68043,-1.73733,4.00907
477,0,9493.05,-1029.48,1192.26,-10.5651,10.1232,-1.63071,4671.98,8590.32,-1261.81,3.93403,-1.87492,3.52221
477,1,9507.34,-1034.3,1212.64,-9.90933,8.3715,-1.98124,4709.43,8622.69,-1285.62,3.49125,-1.61633,3.35366
478,0,9586.26,-1052.22,1237.77,-9.48218,6.9528,-2.16448,4827.69,8682.48,-1265.39,2.59288,-0.885248,1.84711
478,1,9746.56,-1054.65,1302.35,-9.4359,6.60069,-2.28643,4859.05,8696.94,-1308.34,2.18011,-0.442467,1.15885
479,0,9892.67,-1092.89,1357.45,-9.26861,7.68104,-2.27142,4934.31,8767.44,-1337.14,1.17543,0.775473,-0.0894186
479,1,10023.2,-1124.05,1416.09,-9.20732,9.41838,-2.21045,4985.88,8820.19,-1294.15,0.7167,1.34115,-0.761724
480,0,10116.6,-1147.99,1442.49,-9.34428,12.0237,-2.01251,4983.55,8851.33,-1264.16,-0.561901,2.77203,-2.77109
480,1,10126.3,-1168.35,1424.59,-9.20764,14.9353,-1.81426,5005.04,8837.04,-1234.25,-1.34083,3.77955,-3.68855
481,0,10040.2,-1212.6,1395.86,-9.10069,17.1773,-1.58568,4902.32,8722.26,-1186.39,-2.37648,5.65258,-5.46965
481,1,9858.39,-1193.57,1352.79,-8.81145,17.9112,-1.38743,4814.83,8696.92,-1176.74,-2.36336,6.63039,-6.03659
482,0,9699.1,-1179.15,1301.32,-8.90213,17.44,-1.52408,4711.94,8582.22,-1113.42,-2.75828,7.72701,-6.49312
482,1,9627.15,-1195.87,1237.89,-9.14603,15.7952,-1.63102,4650.79,8585.53,-1095.34,-2.92683,8.45966,-6.87461
483,0,9607.94,-1205.47,1192.36,-9.29863,14.1636,-1.46373,4589.77,8574.88,-1035.6,-2.83552,9.28236,-7.04253
483,1,9673.65,-1206.68,1096.69,-9.60319,13.324,-1.40244,4583.68,8527.02,-1015.14,-2.62227,9.60351,-6.84491
484,0,9682.18,-1231.77,1053.47,-9.83208,13.9012,-1.44809,4454.64,8488.69,-982.875,-1.92183,9.99937,-6.63134
484,1,9544.71,-1168.49,1209.99,-10.6542,13.3702,-1.64603,4374.27,8487.43,-961.291,-1.61601,10.1676,-6.49406
485,0,9510.95,-1119.33,1353.77,-11.8277,11.1923,-1.70732,4322.8,8486.25,-932.585,-1.12884,10.1829,-5.73297
485,1,9672.3,-1146.76,1279.88,-12.682,11.1879,-1.79862,4277.3,8485.05,-906.236,-0.838651,10.046,-5.16824
486,0,9818.46,-1194.64,1191.21,-12.6832,13.9134,-1.78362,4388.36,8513.73,-885.879,-0.15354,9.95435,-3.64573
486,1,9806.72,-1235.36,1072.78,-12.1654,17.4496,-1.63133,4361.16,8534.11,-859.555,0.243588,9.71076,-3.35335
487,0,9666.81,-1259.33,985.307,-11.6013,19.3124,-1.58537,4273.76,8580.75,-866.676,0.807062,9.54284,-2.50157
487,1,9452.61,-1235.46,992.353,-10.5047,19.9537,-1.72233,4280.78,8530.65,-849.979,1.02126,9.23828,-2.10382
488,0,9341.07,-1207.91,1058.14,-10.046,18.0522,-1.8596,4190.03,8487.48,-849.929,1.26485,8.55286,-1.61664
488,1,9280,-1230.57,1134.75,-10.2283,14.6389,-2.0272,4152.75,8498.19,-845.166,1.75234,8.07974,-1.37211
489,0,9391.04,-1258.12,1179.1,-10.0766,11.9847,-2.07317,4140.79,8529.3,-875.025,1.9359,7.25736,-1.52408
489,1,9558.63,-1256.97,1112.24,-9.68043,11.3568,-2.16448,4208.88,8566.4,-893.025,2.08818,6.69263,-1.63102
490,0,9690.38,-1301.17,1086.97,-9.48187,12.3915,-2.28643,4236.53,8626.22,-888.261,2.13415,5.44404,-2.10287
490,1,9713.29,-1277.37,1122.82,-9.63384,13.52,-2.13446,4287.93,8657.41,-939.632,2.04284,4.6501,-2.21045
491,0,9714.47,-1307.16,1177.87,-10.0604,13.9175,-2.11882,4290.43,8676.56,-979.191,1.78393,3.41652,-2.56035
491,1,9776.62,-1328.77,1210.24,-10.5482,14.3743,-2.08849,4296.38,8702.89,-979.241,1.84428,2.86617,-2.81989
492,0,9861.61,-1306.08,1216.25,-10.8533,14.6948,-2.07317,4357.35,8796.15,-994.76,1.20545,2.02878,-3.27673
492,1,9937.04,-1312,1201.91,-11.3712,15.3952,-1.93621,4387.36,8803.52,-1058.14,1.02126,1.35742,-3.46029
493,0,9958.68,-1320.4,1218.61,-11.9809,16.7054,-1.79894,4373.04,8771.2,-1102.49,0.443095,0.945594,-3.61257
493,1,9938.37,-1321.6,1250.93,-12.4537,17.8949,-1.72264,4352.68,8780.7,-1057.13,0.152596,0.671046,-3.70419
494,0,9859.45,-1318.01,1237.84,-12.6979,18.399,-1.66166,4355.04,8740.11,-1042.67,-0.380233,0.153225,-3.67386
494,1,9763.68,-1298.89,1252.13,-12.8352,18.156,-1.64634,4335.94,8728.06,-1047.46,-0.503128,-0.136959,-3.65854
495,0,9671.5,-1274.94,1241.42,-12.6376,17.5923,-1.50938,4335.89,8722.09,-1027.15,-0.85303,-0.411193,-3.43027
495,1,9609.2,-1247.42,1253.33,-12.0588,17.0282,-1.37211,4366.97,8705.34,-1066.54,-0.884304,-0.442152,-3.26235
496,0,9542.18,-1218.69,1270.11,-11.2511,16.4337,-1.34146,4373.02,8682.6,-1064.25,-1.26454,-0.152911,-3.23171
496,1,9542.06,-1200.71,1255.79,-10.2605,15.6414,-1.34146,4404.08,8741.12,-1068.99,-1.21983,-0.106629,-3.1404
497,0,9591.1,-1161.25,1231.85,-9.77174,15.3812,-1.38712,4382.64,8734.1,-1083.36,-1.75203,0.197621,-3.47498
497,1,9634.22,-1124.12,1182.81,-9.2386,15.5028,-1.44809,4386.15,8763.91,-1065.46,-1.72295,0.304878,-3.55191
498,0,9661.77,-1140.79,1179.13,-8.94841,15.7314,-1.46342,4330.02,8748.46,-1047.48,-2.01157,0.487491,-3.67355
498,1,9674.96,-1170.73,1164.81,-8.9481,15.7927,-1.55472,4338.24,8724.5,-1079.72,-2.1798,0.68574,-4.08474
499,0,9723.97,-1177.95,1155.21,-9.19168,16.1123,-1.58537,4279.75,8705.34,-1070.25,-2.19512,0.823014,-3.9334
499,1,9761.12,-1210.21,1132.49,-9.54222,16.6761,-1.49406,4289.16,8682.6,-1052.27,-2.28643,0.899312,-3.84147
500,0,9782.68,-1235.38,1121.69,-9.99938,17.2858,-1.32646,4314.33,8698.1,-1027.15,-2.31707,0.868981,-3.43059
500,1,9765.99,-1247.37,1109.73,-10.3046,17.9412,-1.18918,4358.58,8687.39,-1005.59,-2.31707,0.990618,-3.4753
501,0,9755.18,-1271.28,1081.03,-10.4572,18.6119,-1.06723,4371.81,8699.3,-1015.12,-2.18011,0.990933,-3.12571
501,1,9746.81,-1274.92,1112.04,-10.3509,19.1914,-0.990933,4335.96,8687.39,-1019.93,-2.13415,1.11257,-2.94215
502,0,9708.55,-1255.79,1136.03,-10.4875,19.2836,-0.884304,4345.44,8692.13,-994.834,-1.90588,1.11288,-2.65291
502,1,9685.76,-1260.53,1121.71,-10.6401,19.1313,-0.853659,4352.66,8674.23,-979.241,-1.92058,1.32583,-2.42402
503,0,9664.23,-1289.23,1130.04,-10.6251,18.9028,-0.716699,4374.17,8674.18,-969.664,-1.95122,1.72201,-2.3324
503,1,9640.28,-1319.17,1127.68,-10.1532,18.4762,-0.853345,4363.46,8680.17,-934.991,-1.85991,2.05753,-2.13446
504,0,9634.27,-1297.71,1161.13,-9.77174,17.8971,-0.686369,4310.84,8677.79,-942.087,-1.73796,2.22545,-2.02752
504,1,9623.51,-1280.91,1191.08,-9.55817,17.607,-0.609756,4363.32,8669.42,-958.859,-1.61601,2.43871,-2.1035
505,0,9601.98,-1260.58,1193.52,-9.32959,17.1045,-0.65541,4314.48,8659.84,-948.129,-1.12883,2.40869,-1.81457
505,1,9606.72,-1265.32,1217.41,-8.85742,16.586,-0.716385,4272.48,8653.85,-950.486,-1.24953,2.46936,-1.75297
506,0,9656.93,-1258.17,1204.32,-8.4456,16.4178,-0.777361,4252.13,8702.84,-920.626,-1.06754,2.54565,-1.49437
506,1,9719.18,-1229.47,1186.35,-8.17105,16.5394,-0.838337,4279.58,8708.93,-909.797,-0.792997,2.42402,-1.44809
507,0,9724.07,-1231.8,1150.47,-8.10976,16.8593,-0.944966,4240.22,8748.34,-956.404,-0.868668,2.46936,-1.14384
507,1,9702.53,-1210.31,1164.74,-8.20107,16.9969,-0.97561,4241.3,8759.19,-957.705,-0.366795,2.36304,-1.03659
508,0,9682.18,-1209.06,1194.67,-8.36867,16.8296,-0.97561,4229.39,8786.67,-963.648,-0.319887,2.36273,-0.762666
508,1,9695.29,-1218.64,1201.89,-8.87117,16.4487,-1.15822,4234.13,8778.37,-938.576,-0.365854,2.37805,-0.670732
509,0,9740.74,-1210.29,1201.89,-9.20701,16.5241,-1.26517,4212.64,8758.01,-950.461,-0.228894,2.65197,-0.122892
509,1,9782.66,-1221.02,1173.21,-9.17699,17.3158,-1.23484,4204.22,8753.2,-939.755,-0.274234,2.56129,-0.441211
510,0,9767.19,-1222.25,1138.49,-8.91808,18.1088,-1.17386,4250.83,8756.79,-983.931,-0.0766117,2.86523,0.166349
510,1,9737.25,-1249.72,1140.82,-8.6132,18.5666,-1.34115,4234.2,8714.97,-929.073,0.13696,2.94215,0.426829
511,0,9712.11,-1237.84,1151.6,-8.49094,18.3846,-1.40244,4212.62,8711.28,-948.03,0.274233,3.2464,0.518136
511,1,9713.26,-1241.38,1175.52,-8.42996,18.1101,-1.40244,4234.1,8711.31,-948.129,0.396185,3.44497,0.503127
512,0,9719.26,-1248.57,1168.4,-8.18637,18.2771,-1.40244,4271.21,8720.86,-961.241,0.792056,3.3843,1.0813
512,1,9706.12,-1260.53,1167.17,-7.79019,18.5363,-1.35679,4252.15,8731.64,-952.917,1.18855,3.49062,1.23484
513,0,9651.11,-1253.38,1154.03,-7.40901,18.415,-1.43277,4260.45,8726.88,-955.274,1.37179,3.90181,1.31082
513,1,9641.44,-1246.19,1116.95,-6.9975,18.0797,-1.41776,4287.98,8702.96,-946.925,1.58505,3.97874,1.34146
514,0,9651.02,-1252.16,1091.78,-6.66198,17.5313,-1.5394,4305.95,8677.82,-936.145,1.64634,4.64822,1.43277
514,1,9664.18,-1250.98,1051.12,-6.53972,17.0128,-1.67667,4309.56,8661.04,-976.76,1.92026,5.01501,1.73734
515,0,9631.94,-1260.53,1006.82,-6.38743,16.8446,-1.70732,4309.56,8657.43,-969.689,2.24046,5.47186,2.01188
515,1,9630.66,-1264.14,988.818,-6.43277,16.601,-1.75297,4313.15,8621.58,-966.054,2.36273,5.60976,2.11882
516,0,9587.66,-1246.21,1015.09,-6.60038,16.2048,-1.90525,4285.67,8620.3,-924.236,2.60632,6.06629,2.04284
516,1,9589.94,-1250.95,1010.38,-6.87461,15.915,-1.85991,4351.33,8634.67,-1013.77,2.59162,6.21952,2.1035
517,0,9595.96,-1254.56,991.224,-6.90557,15.8993,-1.73796,4358.67,8602.43,-1012.81,2.65228,6.53909,2.08849
517,1,9674.83,-1236.64,968.485,-6.66198,16.2799,-1.70732,4374.17,8611.91,-1007.95,2.81989,6.692,2.07317
518,0,9719.23,-1219.86,958.884,-6.40276,16.9046,-1.66166,4399.31,8619.13,-1013.94,2.86585,7.25516,2.30144
518,1,9700.15,-1205.5,950.51,-6.1132,18.1232,-1.60069,4369.48,8626.3,-939.854,2.86585,7.25641,2.24109
519,0,9670.22,-1198.3,951.689,-5.85398,19.1148,-1.81363,4357.45,8603.61,-946.851,2.77455,7.65166,2.56035
519,1,9594.88,-1215.03,949.307,-5.74703,18.9641,-1.89024,4404.05,8609.52,-964.851,2.7439,7.85053,2.54597
520,0,9568.43,-1210.29,987.54,-5.68606,17.8828,-1.98155,4369.5,8614.34,-981.598,3.06348,8.00282,2.5
520,1,9592.33,-1199.51,1040.21,-5.67073,16.9675,-2.0122,4349.07,8664.53,-925.464,3.17073,8.3227,2.68261
521,0,9654.53,-1193.52,1071.37,-5.76204,16.677,-1.92089,4358.63,8677.79,-915.764,3.21639,8.82552,2.37868
521,1,9719.18,-1199.48,1091.73,-5.83834,17.1485,-2.0272,4387.33,8658.66,-930.129,3.09475,9.00907,2.30175
522,0,9724.07,-1223.4,1089.37,-6.17323,18.1388,-2.07317,4385,8695.67,-930.154,3.04878,9.1157,1.95185
522,1,9652.34,-1230.62,1112.06,-6.32614,18.4146,-1.98187,4356.29,8706.52,-911.025,3.14009,9.14635,1.87492
523,0,9629.48,-1216.28,1163.51,-6.43277,18.0494,-1.99687,4329.94,8637.2,-908.593,2.94247,9.14635,1.75329
523,1,9676.09,-1215.05,1152.85,-6.9656,17.1964,-1.73828,4323.93,8621.51,-934.893,3.09412,9.05504,1.84428
524,0,9781.36,-1241.35,1083.48,-7.40807,16.9512,-1.46373,4366.95,8670.52,-950.486,3.17073,8.93309,2.20982
524,1,9901.07,-1325.06,941.131,-6.49563,19.8274,-1.49375,4374.22,8671.82,-977.988,3.35335,8.90244,2.08881
525,0,9719.62,-1246.36,986.263,-5.51939,22.2079,-1.47874,4339.55,8684.94,-943.389,3.46029,8.58287,1.78393
525,1,9630.71,-1200.71,1011.56,-5.16792,20.7655,-1.64603,4296.45,8690.95,-989.898,3.33865,8.52127,1.5247
526,0,9628.28,-1222.2,1064.13,-5.7611,19.1176,-1.98124,4285.62,8669.44,-931.48,3.15572,8.30832,1.32646
526,1,9708.35,-1227.03,1089.35,-6.52345,18.1414,-2.25578,4353.74,8687.32,-930.104,3.24672,8.09475,1.23484
527,0,9860.3,-1200.74,1073.83,-6.98124,19.1138,-2.04315,4355.09,8724.42,-938.527,2.83615,7.77487,1.21951
527,1,9841.47,-1188.73,1110.84,-7.4384,21.2014,-1.85991,4376.55,8701.78,-906.261,2.86554,7.63728,1.21951
528,0,9659.68,-1180.35,1175.47,-7.74359,22.1792,-1.87492,4411.27,8683.78,-899.017,2.78987,7.53065,1.08255
528,1,9584.03,-1220.97,1088.34,-7.66792,21.6779,-1.84459,4437.62,8620.43,-903.805,2.51564,7.68262,1.08224
529,0,9583.98,-1228.24,1042.69,-6.98281,20.6873,-1.78362,4397.03,8639.41,-847.646,2.7586,7.83521,1.41713
529,1,9597.14,-1215.08,1039.08,-6.58568,19.879,-1.58568,4377.8,8613.21,-871.415,3.09412,7.86586,1.38743
530,0,9611.5,-1254.49,1053.42,-6.11351,19.0103,-1.47874,4326.41,8571.29,-875.099,3.35335,7.63759,1.75234
530,1,9586.43,-1225.91,1119.18,-5.70169,18.05,-1.55472,4338.24,8543.74,-853.564,3.46029,7.78925,2.0272
531,0,9573.22,-1215.05,1150.4,-5.60976,16.7549,-1.63102,4347.87,8566.4,-883.399,4.16041,7.50063,2.16448
531,1,9625.79,-1209.08,1121.74,-5.70107,16.2198,-1.7833,4347.87,8619.05,-909.772,4.48155,7.24109,2.28643
532,0,9665.36,-1181.58,1053.55,-6.00563,16.5238,-1.87492,4337.11,8608.4,-925.34,4.87742,7.05817,2.40838
532,1,9643.89,-1180.33,998.444,-6.41714,16.8746,-1.98155,4355.02,8585.63,-903.854,4.86304,6.69263,2.43903
533,0,9609.17,-1204.25,1029.43,-6.57005,16.2664,-1.96654,4408.84,8562.89,-934.868,4.86273,6.3571,2.30207
533,1,9640.19,-1200.71,1051.04,-6.67668,15.8996,-1.90557,4417.31,8596.31,-951.689,4.78674,6.4631,2.48436
534,0,9685.69,-1189.93,1103.64,-6.88993,15.945,-1.98155,4490.2,8598.79,-963.648,4.93871,6.20482,2.56098
534,1,9721.61,-1183.94,1095.39,-7.08818,16.4321,-1.96654,4501.12,8605.94,-1013.86,4.72608,6.46279,2.60663
535,0,9665.5,-1182.74,1090.55,-7.31676,17.1332,-1.81426,4489.14,8641.82,-1000.83,4.36023,6.58537,2.39369
535,1,9643.84,-1189.91,1081,-7.3324,17.3171,-1.63133,4515.42,8634.72,-1034.22,4.26829,6.53972,2.08881
536,0,9643.84,-1167.22,1020.03,-7.04316,17.0888,-1.63102,4471.26,8650.21,-1005.64,3.72046,6.6157,1.60132
536,1,9651.02,-1158.79,990.021,-6.76861,16.5557,-1.60069,4485.48,8625.17,-1019.88,3.44528,6.60069,1.41776
537,0,9671.35,-1169.55,972.07,-6.61601,16.5394,-1.67667,4492.73,8614.34,-1011.58,2.91245,6.44841,0.8546
537,1,9680.95,-1205.43,995.939,-6.22014,16.768,-1.75297,4495.11,8628.68,-1027.08,2.83521,6.49375,0.898999
538,0,9678.57,-1227.01,1045,-5.68668,16.6923,-1.63133,4535.75,8647.83,-1027.12,2.50063,6.6157,0.290811
538,1,9641.51,-1194.77,1054.65,-5.45748,16.7377,-1.63102,4545.4,8595.28,-1017.55,2.3324,6.692,-0.0759843
539,0,9654.58,-1207.83,1053.45,-5.15291,16.5857,-1.64634,4544.19,8579.62,-993.631,2.22577,7.1182,-0.578484
539,1,9655.83,-1180.4,1057.03,-4.96967,16.1592,-1.64634,4511.93,8570.06,-982.826,2.46904,7.16479,-0.686054
540,0,9696.44,-1146.86,1086.92,-4.98468,15.8083,-1.55504,4544.12,8527.02,-967.282,2.69794,7.45372,-1.40119
540,1,9721.64,-1103.79,1075.03,-5.31958,15.8687,-1.52439,4537.05,8517.37,-983.98,2.37868,7.56098,-1.50938
541,0,9779.02,-1088.17,1049.89,-5.6551,16.5081,-1.47874,4497.56,8493.47,-976.859,2.89525,8.29143,-1.46342
541,1,9754.05,-1076.21,1033.12,-6.27955,17.4834,-1.46342,4472.39,8510.15,-968.461,3.15541,8.49094,-1.55472
542,0,9693.01,-1065.43,1033.09,-6.73734,17.9722,-1.32646,4489.09,8586.69,-1003.11,3.07943,8.79519,-1.72233
542,1,9637.93,-1052.27,1019.95,-7.01188,17.5466,-1.37179,4499.9,8641.82,-986.46,2.91182,9.0394,-1.90525
543,0,9617.52,-1070.17,1015.14,-7.25579,16.6476,-1.40244,4497.51,8641.89,-1005.52,2.91151,9.08537,-1.85991
543,1,9633.04,-1080.98,1025.9,-7.40838,16.3111,-1.44809,4489.14,8666.96,-1000.8,2.88118,8.99406,-2.01188
544,0,9635.47,-1092.93,1000.83,-7.57599,16.0522,-1.32646,4440.13,8726.78,-1039.01,2.27236,8.96342,-2.11882
544,1,9655.78,-1107.3,987.614,-7.75891,15.93,-1.18918,4402.97,8693.43,-1024.77,2.16448,8.96342,-2.08849
545,0,9670.17,-1125.25,1004.34,-7.85053,15.732,-1.24984,4388.58,8673,-1004.39,1.64728,8.7808,-1.93621
545,1,9719.18,-1180.26,1006.77,-8.04847,15.8534,-1.14353,4300.13,8686.14,-1004.36,1.41776,8.62821,-1.9359
546,0,9749.17,-1193.52,1005.56,-8.24672,16.3712,-1.09756,4317.86,8680.2,-1045,1.03721,8.32365,-1.40338
546,1,9797,-1199.48,994.809,-8.24703,16.9353,-1.14321,4283.31,8708.85,-1047.48,0.777675,8.36867,-1.12821
547,0,9818.61,-1237.74,908.741,-8.18606,17.7123,-1.20419,4316.66,8744.78,-993.68,0.412135,7.59288,-0.595375
547,1,9760.07,-1239.02,981.45,-8.26204,18.2464,-1.31082,4347.85,8728.11,-955.323,0.259225,7.18012,-0.792056
548,0,9606.96,-1192.39,1151.38,-8.88618,16.6645,-1.43277,4316.81,8698.17,-926.593,-0.0300172,6.54066,-1.09725
548,1,9687.92,-1138.51,1157.66,-9.35929,15.0475,-1.41776,4272.51,8723.22,-933.714,-0.258911,6.47843,-1.11288
549,0,9848.35,-1171.88,1036.87,-9.40557,15.3343,-1.35679,4326.21,8683.86,-888.335,-0.396185,5.97655,-1.6454
549,1,9873.71,-1169.6,943.414,-9.34459,18.0141,-1.29581,4286.92,8659.84,-893,-0.609443,5.92965,-1.82927
550,0,9793.61,-1152.83,888.31,-8.91839,20.8046,-1.23484,4273.64,8625.17,-867.954,-0.716385,5.24516,-2.1945
550,1,9621.35,-1181.48,915.714,-8.68919,21.4178,-1.21951,4311.9,8567.73,-900.146,-0.777361,4.81739,-2.31707
551,0,9482.39,-1170.8,989.898,-8.56723,19.7133,-1.44778,4284.49,8541.33,-860.808,-0.929643,4.34522,-2.45403
551,1,9455.89,-1177.92,1078.47,-8.44528,17.8224,-1.84396,4238.99,8552.06,-832.004,-0.747344,4.11601,-2.54565
552,0,9528.8,-1157.64,1097.75,-8.46029,16.9672,-1.99687,4253.26,8528.2,-857.075,-0.351159,3.62884,-2.74359
552,1,9646.08,-1156.39,1046.35,-8.79519,17.4228,-1.96654,4211.49,8547.25,-855.946,-0.380862,3.3843,-2.75923
553,0,9695.29,-1158.79,961.389,-8.81114,18.7633,-1.95122,4230.49,8560.46,-877.432,-0.28987,2.89713,-2.46998
553,1,9643.94,-1183.89,945.697,-9.23702,20.0138,-2.04253,4238.94,8590.35,-867.929,-0.426516,2.83521,-2.51501
554,0,9592.42,-1174.39,962.444,-9.61851,20.3962,-2.11882,4270,8610.73,-887.009,-0.213886,2.31802,-2.01314
554,1,9624.62,-1143.27,992.353,-10.0147,19.879,-2.1798,4280.83,8635.85,-855.995,0.106315,2.36241,-1.92058
555,0,9682.08,-1149.19,1007.95,-10.3046,19.2843,-2.19512,4356.12,8657.41,-857.1,0.319887,2.34772,-1.49469
555,1,9743.12,-1136.08,1017.52,-10.868,19.1463,-2.14947,4388.56,8662.22,-854.742,0.046281,2.40838,-1.43277
556,0,9787.45,-1130.06,1027.1,-11.5388,19.6485,-2.13415,4401.72,8708.83,-884.602,0.212944,2.34772,-1.46342
556,1,9807.83,-1130.06,1029.51,-11.9356,20.1367,-1.95153,4405.33,8731.64,-884.676,0.350531,2.49969,-1.46342
557,0,9811.44,-1126.48,1051.02,-12.1948,20.3809,-1.9359,4437.6,8748.39,-873.896,0.0462812,2.69794,-1.41776
557,1,9789.93,-1164.71,1094.09,-12.3474,20.1986,-1.95122,4434.09,8742.45,-867.904,-0.0153224,2.83521,-1.5394
558,0,9782.71,-1195.87,1131.22,-12.4694,19.985,-1.95122,4436.44,8774.69,-909.723,-0.182613,3.23108,-2.0419
558,1,9761.2,-1198.3,1132.47,-12.1348,19.8477,-1.85991,4417.34,8815.4,-888.31,-0.380862,3.30801,-2.24078
559,0,9753.98,-1222.2,1115.72,-11.8296,19.8171,-1.82927,4374.27,8760.5,-890.618,-0.381176,3.61226,-2.98655
559,1,9739.64,-1219.86,1110.91,-11.54,19.6801,-1.87492,4355.07,8735.25,-873.921,-0.274547,3.94778,-3.1404
560,0,9702.56,-1198.33,1096.57,-11.1438,19.5429,-1.98155,4323.98,8691.03,-924.063,-0.0156366,4.70919,-3.42933
560,1,9677.39,-1228.16,1098.93,-10.9453,19.2383,-1.96654,4325.11,8705.27,-875.198,0.106629,4.71076,-3.49093
561,0,9679.75,-1222.27,1065.48,-10.1385,18.9637,-1.95122,4314.38,8689.8,-834.41,0.121951,4.90807,-3.52126
561,1,9674.98,-1216.25,1028.35,-9.64979,18.8568,-1.99687,4302.39,8663.45,-846.32,0.304564,5.13696,-3.53659
562,0,9686.92,-1166.06,1023.52,-9.61883,19.161,-1.92089,4253.38,8614.41,-884.602,0.228894,5.5025,-3.26267
562,1,9673.8,-1156.39,988.867,-9.90807,19.4966,-1.9359,4237.74,8589.22,-852.41,0.182927,5.70107,-3.26204
563,0,9682.13,-1158.79,973.249,-10.4109,19.9384,-1.95122,4223.4,8625.04,-863.067,0.639459,5.82302,-2.74485
563,1,9669.01,-1173.13,961.29,-10.7771,20.7458,-1.85991,4232.92,8638.28,-849.979,0.975296,5.85366,-2.46967
564,0,9645.07,-1181.53,936.17,-11.1732,21.2952,-1.78362,4230.57,8627.52,-853.514,1.2192,5.85366,-1.93684
564,1,9574.52,-1182.74,961.216,-11.3718,21.4938,-1.76829,4210.23,8616.74,-907.316,1.09788,5.85366,-1.49437
565,0,9560.04,-1182.74,972.046,-11.2655,21.2048,-1.72264,4211.39,8675.29,-899.066,1.17355,6.08193,-1.26548
565,1,9566.03,-1197.08,982.801,-11.2195,20.641,-1.70732,4224.55,8699.33,-865.547,1.21951,6.20419,-1.12821
