Frame,Sub Frame,ACCX1,ACCY1,ACCZ1,GYROX1,GYROY1,GYROZ1,ACCX2,ACCY2,ACCZ2,GYROX2,GYROY2,GYROZ2
1,0,-1338.37,-754.2,8312.71,-7.33219,36.6005,9.03971,-1341.96,-1025.95,8208.57,2.74411,23.1552,10.8383
1,1,-1255.76,-548.289,7763.26,-7.4543,38.0639,7.97267,-1326.39,-956.481,8015.79,2.46948,24.695,10.2135
2,0,-1071.43,-384.284,7207.79,-8.29257,39.2377,6.49406,-1054.68,-599.793,7188.69,2.19517,26.1279,9.14644
2,1,-1054.64,-344.765,6616.43,-12.0727,38.5977,5.36595,-1016.33,-367.524,6800.75,1.57019,26.9359,8.21655
3,0,-1100.13,-125.723,5907.76,-14.3291,36.235,6.76809,-1206.66,-337.582,5910.19,-3.58169,23.1408,9.31386
3,1,-1164.77,-171.17,5190.7,-16.6156,29.6044,6.76837,-1339.55,-329.204,5471.97,-4.64947,21.6464,9.61892
4,0,-1154.01,-142.464,4259.38,-19.6339,23.5066,6.44819,-1256.97,-336.384,4386.31,-9.16099,9.97098,8.24712
4,1,-1165.97,-313.616,3778.08,-20.9298,19.8479,8.0943,-1145.64,-325.613,3883.42,-10.0001,5.96039,8.58222
5,0,-1424.52,-468.055,3712.21,-19.9544,10.7632,10.1675,-2003.84,-873.814,3784.04,-8.01851,-4.09935,11.4936
5,1,-1917.7,-709.854,3421.35,-16.8296,-3.71804,13.6429,-2470.79,-1083.37,3811.56,-5.93007,-9.90823,13.384
6,0,-2126.04,-978.007,2964.07,-11.7993,-16.6757,17.4234,-2689.87,-1440.07,2967.72,1.38634,-28.4734,18.2007
6,1,-2343.9,-1248.55,2438.55,-3.1564,-26.8741,25.8985,-2876.62,-1703.46,2616.87,5.03032,-36.5851,21.0669
7,0,-1719.12,-1205.49,1782.55,6.12719,-36.2644,37.8799,-2191.98,-1626.88,1798.15,18.5197,-48.7486,37.8943
7,1,-896.703,-310.157,1095.41,16.7368,-42.1185,51.1878,-1492.84,-1312.06,1334.79,24.4663,-54.4358,45.64
8,0,212.97,1121.54,-375.727,24.4049,-50.746,60.5176,-317.359,743.154,-289.504,35.8371,-62.6058,58.657
8,1,1440,2789.08,-2385.63,22.7901,-57.1184,59.665,497.935,1861.43,-1261.69,40.32,-66.8139,63.4755
9,0,2975.84,3756.44,-3920.38,17.8206,-62.3014,52.5008,2505.3,3958.57,-3707.14,30.55,-76.2947,49.4987
9,1,4678.11,4151.52,-4256.89,6.96766,-67.0728,30.3074,3692.99,4620.81,-4504.69,24.04,-80.6401,39.3604
10,0,5051.77,4137.19,-3876.26,-2.66688,-62.2873,6.31313,5111.47,4729.73,-3782.93,10.4589,-71.8152,6.37583
10,1,5506.6,4341.86,-2014.94,-10.3957,-57.7442,-2.46914,5011.13,4836.28,-2533.19,5.13734,-66.2503,-2.46971
11,0,5872.95,4434.06,1227.89,-18.0176,-60.0454,-9.83153,5289.93,4748.91,1834.65,-2.74297,-72.1486,-8.67295
11,1,5331.96,3982.81,5387.74,-26.1578,-69.0082,-27.0865,5353.45,4636.38,3955.12,-6.61569,-75.8078,-14.1155
12,0,4008.03,3198.73,10069.6,-26.3112,-83.5351,-47.681,3141.46,2708.08,10505,-9.17657,-94.2966,-44.6305
12,1,2384.78,2255.43,14445,-17.623,-99.6632,-64.2517,2072.22,1854.34,13382.3,-7.54603,-103.826,-57.6978
13,0,1242.68,1354,18445.8,-7.11988,-109.664,-79.1145,1107.42,560.395,18637,8.96146,-119.175,-76.7508
13,1,300.56,764.994,21717.5,-1.03702,-104.285,-97.3001,802.06,102.957,20881,15.8992,-123.034,-86.402
14,0,-916.857,408.24,23842.5,-1.61564,-93.5072,-106.981,-88.4755,215.462,23300.1,14.2686,-101.573,-105.867
14,1,-1647.16,-323.136,25089.9,-13.8553,-64.3478,-110.015,-616.478,287.301,24247.3,10.3815,-88.5678,-112.546
15,0,-3002.18,-1000.72,24762.1,-34.754,-18.3278,-106.784,-809.226,-191.475,23999.5,-22.7247,-26.8672,-105.153
15,1,-4353.74,-1620.82,24489.1,-59.9061,30.8491,-96.3122,-2280.3,-792.426,23861.8,-40.2278,2.55979,-104.908
16,0,-5692.09,-2846.57,23638.1,-74.4045,69.2651,-70.3687,-5207.08,-3322.86,22788.1,-63.2139,53.1954,-67.2152
16,1,-6403.25,-3623.57,21570.8,-84.1607,94.1292,-47.9287,-5995.08,-4276.02,22020.7,-72.3626,72.5453,-50.1377
17,0,-6469.14,-3885.77,18632,-99.3277,118.306,-36.0832,-5633.6,-4120.45,18148.5,-89.5255,98.183,-33.9957
17,1,-6830.61,-4501.03,15790,-113.383,144.601,-31.357,-5473.15,-4187.44,16324.9,-102.316,116.493,-30.7772
18,0,-7090.41,-4904.5,13371.8,-117.378,160.883,-15.7336,-6841.26,-5403.57,13273.8,-111.341,140.546,-14.56
18,1,-6599.68,-4939.24,11049.5,-114.101,163.034,-6.49444,-7129.95,-5790.38,11896.8,-112.714,148.079,-4.7109
19,0,-5936.48,-4988.31,9063.42,-107.623,154.178,-12.8344,-6282.48,-5965.13,9166.52,-103.705,139.285,-8.82554
19,1,-5318.78,-4976.35,7665.15,-101.464,144.345,-19.9994,-5947.21,-6066.9,8023,-98.9637,133.583,-12.4541
20,0,-4940.46,-4739.35,6992.31,-86.3737,121.573,-23.4449,-6095.62,-6127.95,7437.65,-78.2342,104.607,-18.6731
20,1,-4645.98,-4527.45,6760.04,-60.9782,87.0004,-18.7354,-6156.69,-6121.98,7205.36,-59.8643,81.8919,-17.2108
21,0,-3951.71,-4212.63,6812.69,-31.6644,48.9365,-10.7325,-4976.49,-5608.48,7186.2,-21.361,35.3253,-7.45534
21,1,-3062.27,-3401.05,6770.81,-3.49342,14.1342,-0.336395,-4474.78,-5249.31,7205.35,-3.73551,15.1532,-3.38429
22,0,-2051.93,-2144.13,6847.4,14.0231,-10.181,7.51462,-2445.92,-2776.37,7114.38,23.2591,-18.7613,8.9467
22,1,-1227.1,-993.694,7193.34,21.6306,-23.307,6.46376,-1698.7,-1764.55,7171.82,33.323,-31.8137,11.738
23,0,-590.226,-76.694,7581.21,19.284,-29.3898,-1.49304,-809.346,-294.659,7503.39,31.8905,-40.0753,0.961644
23,1,-95.8105,146.045,8085.17,10.3211,-26.9364,-11.3863,-1.26117,280.108,7790.71,29.2533,-41.9666,-4.83203
24,0,-138.844,-63.4204,8684.91,-1.26414,-19.5587,-10.976,-114.886,89.8103,8438.29,15.2913,-33.7205,-10.1824
24,1,-292.08,-313.618,9467.79,-7.51485,-14.4364,-6.06756,-225.053,-53.8612,8823.81,8.56736,-29.6191,-9.60392
25,0,-472.837,-703.855,10190.9,-11.524,-9.61937,2.19427,-175.98,-967.148,9925.04,1.03741,-22.6532,4.12951
25,1,-715.843,-785.302,10699.6,-10.5338,-7.30196,2.95751,-158.017,-1497.54,10472.2,-0.670799,-18.1558,7.88117
26,0,-920.553,-657.223,11196.4,-6.35714,-8.00292,3.39927,-725.374,-1112.16,11121,5.8224,-19.893,5.07654
26,1,-988.803,-578.205,11425.1,-0.564589,-8.53657,-2.22488,-1058.22,-1165.95,11526.9,8.38409,-21.2347,2.05819
27,0,-1168.35,-633.258,11548.4,9.06914,-7.31723,-5.94491,-1332.35,-1497.54,11791.4,19.328,-19.299,-3.64269
27,1,-1240.19,-512.377,11438.3,20.5934,-8.26203,-10.0453,-1382.65,-1520.33,11798.6,25.8076,-18.4147,-5.07625
28,0,-882.308,13.1099,11291.1,24.2682,-6.0674,-17.0725,-587.872,-320.967,11248,34.8161,-16.8904,-13.5965
28,1,-671.584,348.335,11167.8,20.6712,0.349935,-20.4876,-505.155,132.871,11153.4,36.2654,-14.5734,-18.9784
29,0,-354.377,493.195,11005,14.1317,8.64251,-20.3812,-195.172,426.135,10890.1,27.3029,-3.99512,-18.3081
29,1,-240.619,500.391,10738,8.62851,13.9935,-19.6799,-71.826,632.055,10739.2,22.8051,0.883957,-18.125
30,0,-231.041,363.934,10455.5,-1.95008,21.3255,-14.0251,-237.006,544.696,10380.1,7.89809,10.1819,-11.0984
30,1,-222.662,195.143,10314.2,-13.7489,29.5877,-1.63239,-281.32,441.738,10234,0.686271,14.2529,-5.83877
31,0,-252.584,-55.0413,10204.1,-22.4993,35.8532,8.74917,-381.862,-163.932,10086.8,-11.8278,21.9503,9.70859
31,1,-442.905,-293.269,10024.5,-29.3439,37.8506,9.16182,-524.317,-377.085,9965.87,-16.692,24.5274,14.2074
32,0,-811.597,-701.458,10114.3,-34.7252,34.0706,3.23235,-1134.78,-1094.06,10159.8,-23.7339,19.1775,4.84869
32,1,-1043.86,-1012.72,10415.9,-35.9299,29.4974,-0.228453,-1319.21,-1420.95,10304.6,-25.9299,16.3264,1.40248
33,0,-1176.74,-1156.39,11071.9,-36.6005,28.2775,-1.15849,-1255.77,-1493.98,11053.9,-25.686,14.0551,0.503143
33,1,-1353.9,-1261.73,11998.5,-40.8532,31.2954,-2.28646,-1242.59,-1504.76,11486.2,-26.1128,13.9176,0.15245
34,0,-1880.59,-1359.9,13181.2,-48.0481,34.9235,-2.39332,-1826.71,-1686.69,12957.2,-36.5232,18.5208,-0.70112
34,1,-2212.22,-1538.26,14369.9,-50.3658,37.7589,-2.3628,-2092.52,-1927.31,13832.5,-40.7621,21.1889,-0.655527
35,0,-2395.38,-1780.07,15157.6,-49.2075,42.9873,-2.10369,-2220.61,-2245.73,14944.5,-38.9789,29.6789,0.274291
35,1,-2760.48,-2134.4,15229.5,-49.375,51.4169,0.228387,-2280.47,-2357.09,15324.1,-38.4299,34.2986,1.05177
36,0,-3155.52,-2479.17,15004.5,-55.3347,59.2981,5.91404,-3226.07,-2746.1,14756.7,-46.0205,43.7642,7.39255
36,1,-3445.23,-2924.47,14903.9,-62.5604,61.5244,14.0084,-3714.58,-3038.22,14597.4,-52.8806,46.936,13.5209
37,0,-3628.4,-3293.19,15179.2,-58.2934,63.5211,19.2679,-3529.08,-4217.25,15212.7,-49.0708,48.1554,20.8682
37,1,-3772.05,-3422.51,15616.1,-44.8489,70.228,17.5156,-3411.74,-4642.35,15528.8,-44.2077,49.9084,22.7744
38,0,-4133.55,-3391.39,15647.3,-33.8118,77.0574,12.1956,-4114.35,-4195.89,15491.7,-26.9379,61.6145,15.0162
38,1,-4479.52,-3580.5,15106.3,-30.4422,79.8932,13.1095,-4449.61,-4037.82,15337.3,-21.2043,65.7774,12.3476
39,0,-4396.97,-4076.08,13678.2,-33.6886,78.0643,22.0875,-4704.58,-4309.53,13710.6,-24.4356,64.1771,23.6115
39,1,-3714.68,-4405.31,12038.2,-40.5024,70.6868,34.5568,-4717.78,-4454.41,12794.7,-27.7437,61.6771,30.3503
40,0,-2751.03,-4255.72,10999,-41.555,66.0522,41.0972,-3049.21,-4946.36,11236.2,-30.5333,51.6627,43.3218
40,1,-2237.41,-3797.25,10206.6,-32.4553,63.5063,42.5152,-2341.55,-5079.3,10684.1,-28.796,47.9422,47.1342
41,0,-2239.77,-3405.78,9829.42,-18.5836,60.1833,43.5822,-2694.63,-4176.79,9904.9,-8.73703,45.0003,47.0732
41,1,-2366.66,-2887.46,9585.21,-3.37027,52.5465,47.3777,-2955.63,-3770.88,9657.01,0.517958,42.3478,48.1249
42,0,-2111.72,-2320.03,9139.91,10.0446,45.3207,50.5486,-2394.27,-2865.96,9069.31,19.3424,32.4401,53.3226
42,1,-1491.65,-1783.73,8444.42,15.3351,40.3663,49.7106,-1787.32,-2288.89,8485.1,25.8079,28.5062,54.7561
43,0,-1033.13,-1235.46,7960.76,17.1798,39.6798,46.0065,-1045.14,-1597,7935.63,26.4786,27.4086,49.2994
43,1,-802.074,-443.004,7668.65,19.7101,41.6919,45.8536,-821.214,-1279.71,7756.02,27.2865,27.4542,47.0885
44,0,-591.387,493.121,7065.35,15.8085,41.2197,49.3594,-742.211,454.699,6977.99,25.5795,28.1554,52.347
44,1,174.693,879.852,6221.41,4.94013,41.5853,46.1286,-413.036,1120.47,6661.87,22.8356,28.125,54.0092
45,0,655.982,885.86,5482.78,-3.56644,43.8412,40.9913,643.928,1143.23,5549.89,4.34661,32.1642,42.0289
45,1,550.688,972.034,5191.84,-12.6821,49.5421,34.7719,829.607,1046.28,5099.66,-3.41442,34.8169,36.7685
46,0,438.145,1001.97,5112.82,-16.0365,53.6888,29.4974,228.712,871.506,5060.15,-6.53934,39.6794,31.7688
46,1,187.972,875.095,5149.92,-14.741,50.6712,23.5372,-86.1761,737.424,5042.19,-6.92079,40.1526,28.8721
47,0,-87.3652,650.047,5252.87,-9.1317,46.2351,18.0645,-337.558,216.733,5285.17,1.14237,33.7355,20.7783
47,1,-444.09,459.702,5306.75,-2.72921,43.1253,14.482,-500.377,38.3089,5317.53,5.51809,31.2958,17.4086
48,0,-928.905,179.593,5358.22,-0.152557,40.8386,12.805,-1210.19,-160.389,5390.53,9.1155,28.2778,14.8936
48,1,-1363.46,7.19354,5132,-1.09741,38.5673,13.1859,-1555.02,-225.055,5291.2,10.2134,26.7684,14.0549
49,0,-1515.52,-45.4873,4656.77,-3.62781,36.2045,11.677,-1623.27,-199.919,4659.19,7.40887,23.9332,13.7043
49,1,-1568.2,-31.1271,4029.5,-6.20405,34.4209,10.8232,-1679.53,-134.082,4283.25,5.73179,22.7287,12.8202
50,0,-1641.22,-16.7602,3630.83,-7.46944,33.0642,11.1432,-1906.96,-265.739,3684.74,2.97285,19.4668,13.4755
50,1,-1719.03,-28.7288,3671.49,-5.80815,29.8174,12.1036,-1970.43,-319.625,3548.2,2.77432,17.683,14.2378
51,0,-1924.92,-108.927,4228.1,0.80723,25.8235,10.4575,-2251.71,-712.229,4327.43,13.2762,12.3634,11.5095
51,1,-2005.14,-141.257,4709.36,11.0814,18.9641,8.90255,-2421.73,-849.941,4683.05,19.268,9.20749,10.7317
52,0,-2032.67,-341.151,5476.66,19.1,9.83316,6.53988,-2450.46,-895.426,5617.89,29.5873,-1.7061,7.95765
52,1,-1874.68,-263.379,6093.2,22.2255,4.55826,3.01862,-2196.71,-683.571,5853.83,33.5213,-6.37182,5.96049
53,0,-1859.09,-262.16,6756.38,24.6492,1.76851,-2.22511,-2151.19,-870.262,6805.41,36.0668,-8.91744,-0.471854
53,1,-1814.81,-284.909,7228.06,26.4023,-0.990604,-7.27092,-2257.72,-936.135,7162.25,37.881,-10.9145,-3.50598
54,0,-1623.29,-251.395,7660.21,22.9273,1.95079,-13.6427,-1570.68,-408.272,7582.39,34.8937,-8.87224,-11.112
54,1,-1820.76,-372.283,8288.67,17.531,8.93226,-19.2526,-1356.31,-306.449,7916.4,31.9057,-6.58554,-15.1827
55,0,-2142.78,-772.089,8863.29,14.5124,15.0148,-20.8689,-2018.24,-948.032,8668.13,27.2109,1.31011,-17.8809
55,1,-2440.86,-1185.1,9097.96,13.1403,17.82,-21.9816,-2207.46,-1276.1,9000.99,24.8934,5.38091,-19.1006
56,0,-2697.05,-1545.43,9066.85,10.4424,20.7162,-22.2256,-2635.96,-1704.63,8981.85,20.9151,9.61848,-19.7713
56,1,-2829.94,-1736.98,8984.25,7.39356,24.4052,-19.543,-2785.65,-1923.73,8920.8,19.0092,11.4938,-19.3446
57,0,-2803.62,-2080.53,8838.21,7.10361,29.9385,-15.7321,-3070.53,-2499.48,8594.02,18.4147,18.5663,-13.9335
57,1,-3153.12,-1957.29,8121.21,6.11294,32.698,-11.6467,-3315.95,-2440.92,8141.52,18.4299,20.7622,-11.7836
58,0,-3278.86,-1669.98,7576.49,2.2565,32.5611,-6.72302,-3502.7,-1944.14,7533.41,12.5769,19.9544,-4.74166
58,1,-3265.69,-1563.42,7258.05,-0.0455986,30.2746,-2.31744,-3501.53,-1855.5,7204.17,10.1982,19.055,-1.5245
59,0,-3289.63,-1544.26,6943.21,0.441972,26.098,-0.731771,-3547,-1918.95,6876.18,10.9755,14.6804,0.792449
59,1,-3248.94,-1520.32,6653.51,2.74367,19.772,1.50891,-3596.09,-1941.7,6749.26,11.8749,12.0123,1.60059
60,0,-3023.9,-1405.41,6451.19,8.99326,13.1103,5.71606,-3268.12,-2112.86,6561.33,17.6061,2.66872,6.53907
60,1,-2929.31,-1322.8,6076.52,14.2831,9.77154,8.12486,-3094.51,-2126.06,6427.24,22.3777,-1.31086,9.03954
61,0,-2615.7,-1098.96,5758.08,18.7191,3.07998,9.81693,-2916.16,-1716.69,5845.51,30.8985,-10.06,11.9357
61,1,-2424.14,-911.007,5577.31,24.9384,-3.62751,11.6157,-2665.97,-1538.28,5663.48,34.5121,-13.7347,12.9421
62,0,-1966.89,-702.718,5288.82,33.5968,-8.2466,13.2621,-2086.61,-1145.67,5230.18,45.5781,-18.7799,14.9998
62,1,-1777.7,-211.937,4838.72,40.6702,-12.1033,15.1675,-2012.32,-865.522,4920.1,50.5639,-20.8689,15.4878
63,0,-1503.59,399.778,4256.94,45.5941,-16.3868,16.4024,-1746.6,58.5572,4114.52,57.484,-26.478,17.7589
63,1,-1133.69,871.453,3600.94,48.8565,-21.6154,16.6006,-1575.39,439.326,3752.92,60.1372,-28.9786,18.3994
64,0,-550.723,1303.61,2887.47,52.3625,-26.9203,18.0943,-675.266,1033.03,2757.03,65.0605,-36.1578,19.9084
64,1,215.409,1753.71,1886.73,54.6645,-29.192,19.3292,-217.891,1407.77,2246.98,67.1494,-39.3902,20.7927
65,0,1052.18,2233.75,881.151,52.4698,-28.3233,16.0065,867.779,2252.85,926.701,66.2654,-38.2776,19.177
65,1,1655.55,2553.39,378.314,48.7046,-28.4756,11.6162,1268.92,2607.27,381.89,64.9087,-37.7134,17.0429
66,0,2102.07,2615.67,482.41,42.9884,-33.5513,6.2505,1582.53,2634.82,533.885,56.5711,-45.365,8.01928
66,1,2796.36,2758.1,685.923,38.2016,-41.7676,2.21067,1835.14,2694.67,605.732,53.5367,-49.3901,4.81712
67,0,3247.71,2881.41,951.67,27.9889,-49.5878,-5.28887,2963.9,3357.79,1103.67,39.8339,-60.5323,-5.68478
67,1,3591.27,2881.42,2112.76,11.5412,-53.8869,-16.8282,3405.74,3561.38,1520.29,31.8297,-64.9542,-11.3869
68,0,3749.31,2768.91,4450.59,-3.94691,-55.1067,-31.5993,3655.92,3162.79,4609.69,12.6545,-67.073,-28.8243
68,1,3518.31,2597.72,7102.17,-15.5784,-52.8204,-47.4224,3755.3,3016.7,6100.37,2.57669,-66.4941,-40.9749
69,0,2557.11,2027.95,9716.64,-21.8441,-49.0857,-57.3469,2366.83,1600.69,9879.26,-7.55997,-61.7536,-55.9284
69,1,1611.37,617.845,11505.2,-26.1125,-43.9944,-59.1921,2116.45,857.155,11232.4,-8.38439,-59.4818,-60.183
70,0,280.249,-526.641,13274.5,-29.1919,-40.9758,-64.0848,252.81,-975.438,13497.1,-14.4047,-54.3603,-63.7496
70,1,-1455.52,-1629.16,15461.6,-24.9853,-43.8106,-65.8232,-794.829,-1692.68,14458.6,-15.2746,-52.561,-66.5395
71,0,-2890.89,-2511.45,17587.6,-17.9579,-46.6309,-65.4879,-2469.45,-3311,17215.2,-2.51663,-58.1701,-65.1984
71,1,-4255.58,-2983.15,19304.3,-7.37903,-48.9328,-65.2744,-3424.86,-3835.51,18432.9,7.02683,-60.9298,-66.0364
72,0,-5276.74,-3307.56,20408.1,-1.15891,-44.025,-58.6593,-5557.92,-4266.42,20623.4,13.3227,-54.0405,-57.6992
72,1,-6241.6,-3539.81,21680.6,3.64288,-36.4793,-39.7732,-6442.77,-4463.98,21576.5,15.3658,-50.1374,-50.0006
73,0,-6578.06,-3318.39,22044.6,5.88404,-25.9309,-24.1475,-6341.06,-3849.95,21727.4,18.2009,-36.9679,-26.283
73,1,-6625.95,-2606.16,21210.3,1.32677,-8.462,-15.1683,-6318.29,-3359.1,21425.7,18.5824,-29.5431,-17.4849
74,0,-6240.53,-1899.85,19644.6,-12.4682,15.4704,-13.75,-5540.27,-2188.42,19353.8,-1.29352,2.34411,-13.9485
74,1,-5955.59,-1719.04,17840.5,-26.4013,41.6289,-15.9601,-5176.28,-1796.85,18343.2,-11.1582,17.8805,-13.7042
75,0,-5803.56,-1987.16,15873.7,-35.6853,62.7728,-19.71,-5225.34,-2382.16,15833.1,-24.0993,44.921,-16.0668
75,1,-6165.03,-2735.3,13851.8,-39.6492,72.0575,-12.4552,-5500.65,-2756.9,14658.5,-28.8261,55.9144,-18.5516
76,0,-5898.16,-3378.17,11923.3,-39.8019,71.9362,-3.75067,-6064.46,-3903.62,12065.9,-29.2683,55.2593,-0.489888
76,1,-5262.51,-3795.98,10414.9,-36.0675,62.9431,3.26163,-6074.11,-4399.33,10995.4,-28.5519,52.4241,6.55479
77,0,-4872.23,-3834.32,9646.29,-27.0588,47.0442,9.60314,-5865.81,-4680.64,9706.23,-14.1174,29.1946,14.3742
77,1,-3921.8,-3270.54,8801.17,-12.9281,24.6209,12.2103,-4839.99,-4414.95,9023.78,-6.32657,16.3116,15.9757
78,0,-2652.88,-2187.2,8185.82,2.25483,4.01078,14.0242,-3061.15,-2759.49,8312.74,12.9858,-7.61948,15.9451
78,1,-1766.98,-619.043,7771.61,12.3469,-11.1421,17.896,-2421.75,-1875.9,8016.99,21.4632,-17.4692,17.3169
79,0,-596.266,489.537,7711.72,14.3598,-17.1339,19.5274,-528.128,125.485,7778.78,26.1886,-27.2094,21.3106
79,1,525.438,732.624,7863.74,9.80234,-12.0434,14.2994,527.872,820.006,7691.38,26.6312,-29.9086,21.0825
80,0,1034.27,644.051,8118.71,2.02814,0.410415,9.71068,1220.98,677.578,8069.61,15.0013,-13.0811,13.0649
80,1,767.381,788.87,8593.94,-4.81654,10.8072,6.44843,1273.73,636.856,8280.34,9.84772,-5.39658,10.3659
81,0,345.996,804.457,9063.21,-8.18578,13.4756,3.61304,225.167,533.919,8943.47,3.40006,-0.488275,5.13777
81,1,193.936,678.769,9526.49,-8.59759,11.9057,-1.69156,-131.679,408.221,9259.56,1.31099,0.320188,2.36292
82,0,-102.919,566.237,9952.66,-5.4729,9.74104,-8.35309,-336.363,234.648,9872.43,6.35614,-2.66737,-6.53869
82,1,-329.188,476.453,10263.9,-2.11916,7.65262,-8.87209,-502.771,143.657,10151.4,8.68896,-4.05483,-9.52743
83,0,-538.677,418.989,10767.9,0.761962,5.57944,-3.07987,-773.301,132.878,10833.7,12.3777,-6.81374,-0.793659
83,1,-586.58,493.196,11139,1.82923,5.83833,2.10328,-852.336,87.3936,11119.9,13.628,-7.27139,3.41449
84,0,-584.185,626.072,11236,1.17387,8.42962,3.00308,-679.973,301.644,11228.8,12.4697,-4.57346,4.20728
84,1,-573.412,685.936,11106.7,0.183009,13.8714,3.29264,-565.038,363.92,11218,11.8903,-2.85071,4.00918
85,0,-598.547,651.228,10799.1,-2.39303,20.411,6.47832,-621.287,520.721,10716.5,9.03995,6.21854,7.19476
85,1,-633.264,622.494,10316.7,-6.50878,26.6001,10.4722,-610.526,513.563,10521.3,6.87514,10.2895,9.25294
86,0,-627.282,635.659,9736.07,-10.7314,31.3564,14.3899,-652.414,547.069,9691.82,0.701862,16.6609,14.9232
86,1,-755.356,357.965,9284.75,-13.0029,33.7651,17.1949,-763.74,471.668,9350.56,-2.13405,19.4816,17.2103
87,0,-928.936,44.3171,8972.29,-15.2437,34.3902,19.0852,-1049.83,-137.602,9018.99,-5.1369,20.2134,20.1217
87,1,-1018.73,-61.0486,8775.96,-16.2652,32.6222,16.7686,-1224.62,-405.809,8912.42,-6.12804,19.8171,19.3904
88,0,-1145.61,-237.008,8651.46,-15.7165,30.7776,13.7045,-1491.56,-707.456,8720.9,-5.01537,17.2564,15.412
88,1,-1351.51,-568.592,8548.51,-12.9728,28.3539,11.8446,-1613.69,-903.8,8643.07,-4.13116,16.0519,13.9939
89,0,-1565.79,-987.572,8483.86,-10.5337,26.494,10.3203,-1857.88,-1513.07,8562.87,-0.579645,13.5826,11.8905
89,1,-1693.89,-1164.77,8567.64,-7.48504,23.5826,7.37834,-1930.92,-1736.99,8512.59,1.50904,12.0733,11.3567
90,0,-1729.81,-1115.71,8869.29,-2.66813,18.72,4.14661,-2030.27,-1665.18,8895.61,8.00237,6.06772,6.05243
90,1,-1672.36,-847.575,9170.96,2.31667,15.0003,3.26221,-2017.12,-1569.41,9108.73,11.2956,3.41472,4.26829
91,0,-1565.82,-618.918,9342.16,3.35368,15.3505,5.60949,-1750.19,-972.11,9254.77,14.5424,2.98783,6.46317
91,1,-1465.26,-451.32,9512.15,2.10379,16.9663,7.91142,-1634.05,-687.146,9323.02,14.8019,3.20119,8.10966
92,0,-1459.26,-379.485,9593.56,-0.62474,20.2131,9.51208,-1558.63,-666.784,9472.64,9.81761,8.04825,10.701
92,1,-1479.62,-343.571,9591.17,-2.81996,23.262,9.28361,-1537.08,-702.695,9515.76,7.72872,10.1371,11.0976
93,0,-1545.45,-313.643,9536.11,-4.07004,25.7468,7.43921,-1634.03,-656.018,9496.6,6.32636,13.3686,8.82646
93,1,-1493.99,-277.731,9253.62,-6.4327,27.256,6.20435,-1784.86,-575.812,9375.71,5.41164,14.3903,8.10976
94,0,-1610.09,-300.469,9258.37,-8.68886,27.1494,7.30168,-2018.29,-735,9330.21,1.58577,14.6189,9.39011
94,1,-1714.24,-228.655,9443.91,-6.28082,22.6682,7.42382,-2169.14,-809.239,9349.36,0.868847,13.552,9.8628
95,0,-1622.08,-114.931,9646.22,-1.46384,17.287,5.89955,-1968.06,-602.165,9665.36,8.76439,5.9002,7.59172
95,1,-1491.6,64.6267,9865.29,2.37776,13.3235,5.15247,-1877.06,-492.013,9811.43,11.8902,2.74398,6.60064
96,0,-1341.96,215.467,10194.5,2.72872,10.9758,4.51226,-1678.36,-184.386,10080.8,13.3992,-0.700863,6.29576
96,1,-1270.13,435.724,10619.4,2.37807,10.2592,3.04892,-1441.33,-3.60052,10424.3,13.4757,-2.36274,5.8537
97,0,-1277.3,569.812,11251.5,1.44827,13.018,0.0155338,-1283.3,286.078,11063.5,12.302,1.41724,1.47913
97,1,-1265.34,629.671,12046.4,-2.49959,18.719,-3.3229,-1228.23,420.177,11423.9,10.991,3.88707,-0.579197
98,0,-1428.12,641.646,12580.3,-7.78919,27.484,-6.75276,-1695.04,525.517,12588.6,2.80575,15.517,-4.90808
98,1,-2062.54,867.873,13192,-14.0848,33.3076,-10.3656,-2564.11,767.318,12996.9,-1.28033,20.0457,-6.78348
99,0,-2065.02,627.316,13937.8,-17.2407,40.2128,-19.6485,-2104.58,213.154,14008.4,-6.0666,28.2156,-18.7487
99,1,-2245.73,284.936,14507.6,-21.0362,49.5419,-28.0177,-1922.54,-34.7115,14449,-8.32308,32.7742,-24.6035
100,0,-2679.07,-74.189,14798.5,-27.7585,59.6486,-27.1345,-2574.89,-331.565,14704,-16.5083,44.6177,-25.2439
100,1,-3019.06,-490.775,14957.8,-34.2983,70.3802,-21.6926,-2801.21,-559.031,14812.9,-20.7468,50.0456,-23.5978
101,0,-3409.31,-882.232,15136.1,-38.0485,80.106,-16.7534,-3341.05,-1299.97,15029.6,-28.0938,63.8705,-15.6868
101,1,-3697.82,-1260.52,15079.9,-42.713,85.7771,-11.4944,-3637.98,-1546.65,15126.6,-30.7317,69.6645,-12.4544
102,0,-3758.9,-1513.12,14765.1,-45.8535,87.0732,-8.70443,-3835.49,-1967.99,14708.8,-37.3469,72.0882,-6.20494
102,1,-3830.71,-1730.99,14427.5,-47.1036,86.1282,-5.89965,-3981.55,-2189.49,14512.5,-39.7866,72.561,-3.75005
103,0,-3825.94,-1829.17,14209.6,-44.0248,82.409,-2.14972,-4070.14,-2500.71,14167.7,-35.3511,68.0188,0.883648
103,1,-3554.22,-1814.81,13855.3,-39.223,78.1711,-0.198278,-3920.52,-2588.13,13951,-31.5551,65.0612,3.1554
104,0,-3229.8,-1632.86,13335.8,-36.0673,73.7047,-0.289589,-3472.83,-2208.69,13229.2,-27.4089,59.589,2.36292
104,1,-2845.54,-1532.29,12938.3,-33.5063,69.0401,-0.564009,-3306.4,-2036.27,12925.1,-25.9147,57.1952,2.1951
105,0,-2409.8,-1640.01,12661.8,-27.7902,66.4941,0.0304166,-2558.29,-2286.43,12616.3,-18.5222,53.2017,2.39328
105,1,-1960.89,-1727.41,12149.4,-21.2048,67.7285,2.71314,-2176.34,-2371.46,12374.4,-14.7715,52.4542,3.12493
106,0,-1568.23,-1836.34,11759.1,-16.8296,73.1855,6.18873,-1509.61,-2334.35,11707.7,-9.43652,58.2006,7.33188
106,1,-1492.78,-2018.3,11592.7,-12.2108,82.5449,10.3655,-1169.58,-2336.74,11534.1,-6.93608,63.3533,10.4419
107,0,-1847.09,-2230.18,10982.3,-8.64355,89.2831,14.2527,-1703.41,-2639.57,10930.8,-0.656154,76.4316,18.0785
107,1,-2160.75,-2442.07,9879.77,-4.61927,97.0725,22.9565,-1942.89,-2724.6,10596.8,2.21027,82.2102,22.5303
108,0,-2057.84,-2731.76,8819.13,-2.71351,103.323,32.0877,-1667.59,-3258.45,8208.78,4.69488,90.7614,34.6177
108,1,-1997.96,-2731.79,7090.59,-3.44501,103.095,35.7773,-2127.19,-3107.71,7164.68,5.51828,94.1463,35.9454
109,0,-1853.13,-2540.27,4767.06,-7.89589,97.1195,45.563,-2201.48,-2573.81,4373.31,-1.21876,82.9129,49.7088
109,1,-1503.59,-1996.82,2860.02,-11.8747,89.1318,57.3466,-2063.81,-2249.37,2846.78,-4.57305,77.1649,57.454
110,0,-1223.46,-1105.01,1594.63,-11.2807,80.1228,66.6914,-1667.6,-1251.07,1543.18,-4.02449,66.6017,68.4288
110,1,-998.4,132.768,803.312,-8.00336,71.0831,72.3625,-1499.97,-712.3,1005.58,-2.89643,61.6923,73.1401
111,0,-638.089,1211.38,-348.248,-6.79881,59.6962,74.0853,-1146.86,914.413,-387.713,-0.152713,47.3491,76.4784
111,1,-83.8473,2164.28,-1296.39,-5.33552,48.3241,71.6619,-879.886,1564.6,-969.637,1.40236,40.3204,76.8903
112,0,551.81,3217.72,-1496.38,-4.92378,40.9304,68.9179,65.7417,2933.95,-1467.6,3.56686,25.0626,69.6197
112,1,533.927,3964.75,-1063.07,-4.52749,33.4001,59.2388,468.055,3609.23,-1349.16,4.48168,19.3751,64.0553
113,0,420.188,4173.09,96.8528,-5.53341,26.1439,46.8456,114.965,4096.43,-164.124,4.11591,11.449,48.3553
113,1,197.544,3902.58,1225.74,-6.14327,17.4855,30.2302,46.6802,4089.31,499.158,4.32923,6.89047,39.8632
114,0,-319.576,2988.05,3327.74,-3.06438,8.18675,17.5466,-852.234,2386.01,3826.77,8.74953,-4.84634,19.9563
114,1,-1065.35,2032.75,5614.22,3.52073,-0.227984,12.9423,-1306.02,1647.23,5330.64,11.6005,-10.0456,12.4849
115,0,-1447.27,1395.86,7561.93,12.0877,-5.91423,15.015,-1610.07,748.28,7857.51,23.3219,-17.7279,15.9142
115,1,-1526.3,1094.17,9145.73,21.4626,-5.21363,14.3599,-1634.05,408.218,8986.6,28.7193,-19.8019,17.2866
116,0,-1877.02,913.402,10474.5,28.4599,1.32557,9.49743,-1829.15,330.406,10455.3,38.1393,-11.8759,11.0525
116,1,-2279.25,659.626,11565.1,32.3778,9.46578,4.11629,-2008.72,268.155,11116.3,41.7835,-7.43923,8.55188
117,0,-2421.73,351.974,12152.9,34.3596,19.115,1.75317,-2141.6,-101.714,11964.9,44.7558,4.78531,4.7565
117,1,-2717.39,398.621,12033.3,33.3843,25.3502,0.670813,-2209.84,-119.721,12221.2,45.8079,10.8534,3.44513
118,0,-2875.43,616.487,11479.1,26.6166,32.9414,1.7529,-2695.82,312.399,11491.1,35.1994,22.6512,4.5578
118,1,-2843.12,689.528,10899.6,19.9395,40.2281,3.33829,-2900.57,416.594,11050.5,30.5946,27.3932,5.25911
119,0,-2677.93,651.228,10005.5,14.1163,46.6154,1.79899,-2639.64,367.514,9817.55,23.7507,34.4657,4.03978
119,1,-2682.7,572.221,8974.75,7.92736,50.9601,-1.85942,-2673.11,350.751,9220.09,19.7563,38.5364,1.53986
120,0,-2743.75,403.439,8122.39,0.305543,52.6676,-5.28937,-2887.39,202.326,8005.14,10.4583,40.1981,-2.94166
120,1,-2876.62,124.524,7335.9,-6.23426,50.6862,-8.33817,-2987.96,77.8199,7461.55,6.052,40.4573,-4.48168
121,0,-3142.36,-99.3431,6676.28,-8.9328,43.6745,-10.4572,-3605.6,-432.1,6653.57,1.7992,31.7845,-8.0484
121,1,-3382.99,-241.804,6313.53,-7.95747,32.9888,-9.63429,-3864.24,-629.671,6387.73,1.00605,26.9819,-9.16159
122,0,-3366.26,-420.166,6215.35,-5.57948,21.754,-6.09791,-3865.44,-778.1,6203.4,4.31368,13.4465,-5.8083
122,1,-3230.99,-469.264,6460.73,-3.79586,15.6254,-3.82636,-3852.27,-942.105,6233.29,6.6462,5.21385,-2.82033
123,0,-3028.68,-192.764,6908.43,-0.71676,8.43055,-1.67702,-3278.92,-694.35,6827,11.4172,-4.92281,0.228393
123,1,-2901.78,14.3526,7205.33,0.777374,2.92721,-1.41765,-3153.16,-419.005,7065.28,13.2317,-8.59749,0.259232
124,0,-2813.19,128.082,7684.14,-0.487645,1.81402,0.0760444,-3027.48,-114.948,7724.82,11.4789,-9.98464,1.8748
124,1,-2802.41,77.8198,8014.57,-4.7252,3.65834,3.67345,-2981.98,-19.1552,7888.9,10.1678,-10.0915,3.14018
125,0,-2619.28,2.3997,8422.76,-9.45084,8.42943,6.56992,-2534.31,-240.593,8378.45,2.66848,-3.87262,7.65197
125,1,-2826.33,-82.5925,8796.27,-11.7072,13.3838,2.71391,-2370.26,-377.08,8608.35,-0.396272,-0.366014,6.75331
126,0,-3242.91,-288.481,8803.49,-13.1706,15.5792,4.42038,-3345.79,-573.392,8686.16,-1.61574,2.63692,5.01535
126,1,-3150.79,-428.553,8619.14,-17.0118,16.8749,11.3408,-3636.8,-657.206,8647.86,-2.63712,3.1098,7.25582
127,0,-3015.5,-393.853,8602.36,-20.0913,18.384,9.5431,-3172.37,-791.27,8617.93,-8.49024,4.77115,10.3504
127,1,-3129.21,-384.268,8775.93,-20.183,18.689,4.726,-3068.16,-872.682,8661.02,-10.2744,5.41158,9.35995
128,0,-3189.07,-355.542,9045.27,-18.3081,16.8295,-0.0300994,-3381.78,-871.491,8992.59,-6.31141,3.14049,2.15011
128,1,-3039.46,-287.31,9174.57,-16.3721,14.5276,-1.17379,-3398.58,-841.565,9212.88,-4.8171,1.64642,-0.106702
129,0,-2851.51,-239.423,9182.96,-14.68,13.2775,-2.57607,-2979.63,-714.682,9150.65,-2.92703,0.487905,-0.899306
129,1,-2737.78,-132.889,9114.73,-12.9422,13.5518,-6.52401,-2770.1,-614.119,9127.89,-1.99699,0.228654,-2.21025
130,0,-2675.52,-64.6473,9003.4,-11.6312,15.32,-9.74063,-2711.44,-446.535,8930.39,-0.106901,2.8046,-6.95075
130,1,-2619.26,-92.1725,8901.65,-11.7987,17.4998,-13.2162,-2628.84,-458.483,8899.24,0.0762642,3.88717,-9.14627
131,0,-2795.21,-317.209,8683.79,-14.4205,19.8779,-15.9754,-3025.03,-669.159,8645.49,-3.1704,7.39292,-13.8257
131,1,-2962.81,-549.452,8619.13,-16.7529,19.6647,-13.8418,-3272.86,-843.944,8560.47,-4.89322,8.58232,-14.6647
132,0,-2868.27,-560.248,8382.13,-15.6557,18.7044,-14.2529,-2913.79,-978.021,8360.57,-4.43605,6.90567,-12.3935
132,1,-3051.39,-535.105,7904.5,-11.8754,16.8295,-11.9972,-2965.2,-1046.26,8200.15,-3.6586,6.06711,-12.9877
133,0,-3029.87,-538.695,7538.17,-9.64952,14.2228,-7.11934,-3385.36,-925.373,7594.47,1.60006,0.762758,-3.85774
133,1,-2627.68,-336.407,7226.92,-6.57042,8.55237,-0.671284,-3386.61,-970.839,7410.05,3.38414,-2.39314,1.20407
134,0,-2396.61,-102.968,7034.18,-2.05832,2.04321,-2.02711,-2675.59,-498.048,6927.67,10.2737,-10.6394,-2.01178
134,1,-2367.86,45.4798,6676.27,0.929686,-2.49969,-6.29538,-2530.66,-305.263,6708.56,13.0182,-13.8719,-4.98458
135,0,-2179.94,227.433,6354.23,1.93593,-5.39614,-3.58273,-2395.42,-6.0167,6294.4,14.2225,-17.5149,-2.02782
135,1,-1800.47,396.228,6110.02,0.792821,-7.17976,2.0727,-2215.85,162.798,6141.13,14.6189,-18.6585,0.838234
136,0,-1494,651.2,5847.86,-0.548683,-9.16142,4.35967,-1771.75,434.521,5846.67,12.1649,-21.4022,4.87768
136,1,-1261.76,859.504,5646.74,-0.167756,-12.1186,3.99397,-1659.18,524.329,5714.96,11.2043,-22.7286,5.99086
137,0,-926.586,1016.33,5498.3,0.0609756,-15.3961,4.05485,-1192.36,763.725,5451.62,12.3017,-27.1642,5.51834
137,1,-492.045,1301.22,5165.52,0.792605,-17.7285,2.59163,-865.522,853.532,5396.53,12.5,-29.1463,5.54876
138,0,-130.51,1566.99,4728.58,0.39641,-18.9176,0.244097,-450.148,1302.4,4867.47,12.5305,-31.0212,1.40289
138,1,171.162,1854.29,4253.34,-0.182888,-21.5241,-3.56673,-326.809,1476.02,4572.94,12.3323,-32.9115,-2.05771
139,0,362.709,1972.82,3934.89,1.15838,-26.021,-6.82904,126.845,1699.86,3931.34,14.451,-38.5208,-5.6247
139,1,725.409,2094.92,3682.3,3.20106,-30.457,-11.7679,399.819,1804.03,3633.21,15.9146,-41.067,-7.49991
140,0,1102.5,2037.48,3296.85,5.41141,-32.4389,-16.0515,1266.45,1768.12,3209.47,19.0393,-43.6278,-14.1152
140,1,1440.09,2088.93,2826.39,5.38116,-31.7837,-16.6464,1405.41,1853.1,3114.85,20.2286,-43.2014,-16.0366
141,0,1637.62,2256.52,2486.4,0.976055,-31.875,-16.7988,1431.72,2346.27,2656.42,13.9488,-43.8109,-16.0213
141,1,1801.62,2296.04,2129.67,-5.68542,-34.39,-18.9022,1387.45,2470.82,2280.5,10.5489,-44.6494,-16.7225
142,0,1861.49,2157.19,1747.8,-11.6002,-39.2526,-21.9053,1400.6,2393.01,1611.36,4.04028,-50.2586,-20.7923
142,1,2068.57,2032.69,2201.41,-14.0853,-48.0175,-25.8838,1491.58,2215.85,1552.62,0.503208,-53.2621,-22.2561
143,0,2117.67,1923.75,3228.49,-12.3935,-54.0545,-29.1461,1618.47,1751.4,3161.38,3.74961,-66.6907,-29.1761
143,1,2230.19,1709.48,4425.59,-9.55816,-60.6397,-34.4965,1741.77,1646.01,3861.83,5.96027,-72.4542,-32.5152
144,0,2147.61,1047.53,6016.49,-11.9509,-61.3873,-45.5021,2216.98,1236.65,5451.44,1.66207,-71.7837,-48.3216
144,1,1948.9,387.909,7145.42,-16.9661,-53.4002,-58.5813,2351.11,690.77,6665.38,-0.884041,-69.802,-56.265
145,0,1203.16,-655.918,8926.62,-21.082,-36.0839,-66.966,1502.45,-909.643,9180.33,-6.52384,-48.5997,-65.5174
145,1,-22.6406,-1545.4,11026.3,-24.7101,-17.8977,-71.6765,919.405,-1566.99,10371.6,-8.97859,-37.912,-68.9329
146,0,-1349.03,-2094.89,12692.7,-30.5026,-5.88494,-73.9176,-1310.6,-2355.82,12630.4,-17.1638,-20.3676,-72.0272
146,1,-2646.69,-2474.38,14006,-35.838,-2.39339,-72.866,-2361.84,-2668.33,13558.3,-21.006,-14.3903,-72.7135
147,0,-3582.86,-2823.93,14787.7,-37.7591,-4.26807,-69.543,-3671.38,-3272.81,14638,-24.0546,-16.8138,-68.2322
147,1,-3852.26,-3101.67,15106.2,-36.8904,-2.57647,-64.9852,-3998.32,-3592.49,14991.3,-24.8933,-18.1859,-66.3568
148,0,-4182.64,-3114.86,15160.1,-35.1983,5.95956,-59.1164,-3877.42,-3541.03,14878.8,-22.3631,-9.39118,-59.955
148,1,-4791.94,-2692.32,15292.9,-33.8416,11.6003,-53.8571,-4157.5,-3535.04,14964.9,-22.2103,-4.48191,-56.6313
149,0,-5851.34,-2416.96,15620.9,-32.2562,16.8288,-51.0673,-6010.46,-3166.37,15448.5,-20.427,3.3834,-50.6408
149,1,-6349.4,-2284.08,15866.4,-30.2288,17.8659,-40.1688,-6690.59,-3094.5,15771.8,-19.7561,5.51832,-44.9394
150,0,-6912.01,-2144.02,16164.4,-28.552,15.9148,-27.4247,-7394.42,-3019.1,16322.4,-17.3783,2.54603,-25.9165
150,1,-7303.49,-2218.22,16581,-24.9241,13.5673,-12.8975,-7625.53,-3081.33,16576.2,-15.8995,1.03664,-17.3021
151,0,-7292.75,-2165.56,16678,-19.8175,12.2562,2.07203,-7459.15,-3098.1,16670.8,-9.6805,-0.655333,1.01956
151,1,-7109.6,-1977.63,16676.8,-11.7995,11.6921,10.9598,-7277.19,-3032.26,16645.7,-6.31112,-1.15854,8.93272
152,0,-7047.33,-1677.16,16538,1.49277,7.37848,14.3748,-7637.46,-2875.45,16601.4,10.0594,-3.6278,13.7496
152,1,-6979.1,-1353.95,16099.8,18.5352,1.26573,19.2374,-7552.53,-2837.13,16624.1,18.6582,-7.37775,16.2194
153,0,-6156.77,-1183.94,14920.8,30.8529,-1.63096,26.3866,-6269.34,-2045.93,14850.2,39.7846,-12.9264,25.4564
153,1,-4841.18,-906.231,13641.1,34.3902,0.716179,29.0243,-5330.74,-1727.42,13985.8,46.8293,-13.5824,30.3809
154,0,-3974.43,-338.829,12354.2,29.6652,11.4777,26.0217,-3992.45,-528.041,12341.1,39.7264,1.11134,26.8754
154,1,-3482.4,27.5126,11658.6,16.4189,25.0904,23.4758,-3530.26,-8.39245,11675.3,30.458,11.219,25.3049
155,0,-2445.77,329.179,10716.5,2.6382,33.7952,18.095,-2104.65,342.34,10383.8,12.715,21.0815,19.7109
155,1,-1640.08,579.379,9696.59,-8.90161,37.8809,7.22655,-1544.27,466.867,9750.41,5.2289,24.4207,15.1222
156,0,-1367.1,719.449,8890.92,-17.2251,38.6128,-1.88964,-1567,610.508,8779.63,-6.20321,25.3658,1.12936
156,1,-1201.9,775.719,8331.86,-21.8747,35.9911,-5.6858,-1538.28,587.783,8368.94,-10.5335,24.8781,-3.50607
157,0,-1194.7,821.208,7894.91,-23.125,27.6227,-5.91467,-1835.12,529.122,7951.18,-11.8901,17.2264,-4.00911
157,1,-1077.4,887.046,7783.55,-20.8082,13.1414,-5.33541,-1942.89,538.693,7741.66,-11.7074,8.81157,-3.41471
158,0,-818.838,940.918,7838.61,-14.7414,-3.2,-7.69793,-1523.95,409.422,7886.48,-4.02513,-12.239,-5.31991
158,1,-520.761,820.027,8141.45,-9.64972,-11.2953,-10.2742,-1164.8,381.873,8005.01,0.121789,-21.0668,-6.95113
159,0,-326.82,660.811,8659.79,-2.45487,-16.9203,-13.5973,-657.251,254.996,8581.96,11.188,-29.0237,-12.469
159,1,-301.668,658.402,9206.86,1.26508,-19.7712,-15.0609,-523.132,275.327,8860.93,15.381,-31.814,-14.4817
160,0,-324.413,699.104,9514.54,-1.28018,-19.7409,-13.8264,-512.361,602.112,9423.53,10.4883,-31.2196,-12.3783
160,1,-348.355,758.957,9984.98,-5.8838,-15.8693,-11.8904,-417.797,664.395,9852.12,7.63731,-30.3354,-11.0519
161,0,-379.479,786.494,10524.9,-6.84454,-8.41525,-12.0884,-240.632,496.812,10503.3,5.79283,-21.4338,-10.6708
161,1,-545.863,847.542,11003.7,-4.93921,0.334714,-15.0607,-310.038,387.866,10814.6,5.62497,-16.7075,-11.1585
162,0,-928.918,934.929,11380.8,-3.18609,7.72816,-17.4389,-1049.79,548.255,11325.7,8.01807,-5.67175,-15.3197
162,1,-1283.27,896.634,11450.3,-2.48479,13.2923,-17.6067,-1344.34,618.9,11453.9,8.78049,-1.60067,-16.4634
163,0,-1497.56,650.048,11225.2,-3.2926,18.9173,-16.4483,-1533.47,353.171,11185.7,7.86595,5.73102,-14.9849
163,1,-1628.05,380.697,10904.4,-5.8382,24.8014,-14.4971,-1614.89,202.316,10991.8,6.82934,9.25294,-13.9635
164,0,-1631.65,132.896,10570.4,-7.82,28.2925,-13.3232,-1680.72,-98.135,10568,2.97291,15.4872,-11.4941
164,1,-1612.5,10.7798,10084.4,-10.701,32.4844,-12.7439,-1685.52,-223.855,10356.1,1.17384,18.4908,-10.686
165,0,-1594.54,-38.3044,9752.8,-14.2223,35.9906,-13.8566,-1677.14,-288.496,9646.3,-4.10012,22.9569,-12.1797
165,1,-1618.48,-116.112,9338.62,-17.2711,37.82,-15.32,-1693.9,-389.05,9343.38,-6.34141,24.6036,-13.0945
166,0,-1760.92,-296.866,8913.64,-19.634,37.5763,-14.2075,-2026.66,-711.049,8840.64,-9.40521,23.872,-11.4941
166,1,-1891.41,-482.419,8616.75,-19.5428,35.3661,-10.6558,-2146.4,-816.422,8598.78,-10.1829,23.186,-10.1373
167,0,-1970.42,-677.545,8509,-18.0032,31.86,-7.53069,-2286.45,-1084.55,8492.24,-7.88132,19.4363,-6.17414
167,1,-2055.42,-875.066,8735.22,-14.9088,27.3022,-4.95445,-2321.18,-1198.3,8534.12,-6.7226,16.9971,-4.34457
168,0,-2193.08,-1035.48,9084.77,-8.35421,22.165,-1.76854,-2547.41,-1583.73,9095.52,1.05109,10.5036,-0.579612
168,1,-2270.9,-1007.97,9364.9,-0.701776,17.607,2.19482,-2588.14,-1784.87,9336.18,5.15229,7.60679,1.47858
169,0,-2122.48,-806.863,9651.01,2.8657,15.4727,4.92362,-2263.75,-1328.83,9654.59,13.3529,3.11016,7.16412
169,1,-1960.86,-563.852,9955.07,5.06082,14.5275,6.90535,-2098.52,-1103.73,9782.71,16.0976,1.61586,9.00915
170,0,-1889.03,-413.008,10139.4,7.66749,15.9755,7.42378,-1991.98,-870.313,10144.2,18.8107,3.87173,9.29876
170,1,-1848.33,-131.705,10354.9,9.72548,17.6676,7.30185,-1966.84,-681.162,10315.4,19.9238,4.95424,9.02443
171,0,-1806.43,246.574,10443.5,9.67993,19.192,6.57019,-1906.99,22.6811,10426.7,20.0457,6.84434,8.1708
171,1,-1731.01,488.403,10442.3,6.26556,21.5852,4.87819,-1904.59,287.3,10375.3,19.1922,7.98776,7.74392
172,0,-1705.87,640.439,10539.3,2.98802,25.1369,3.15561,-1810.03,369.898,10523.7,14.1011,12.4691,4.98502
172,1,-1808.81,721.847,10655.4,0.884279,28.704,2.46954,-1848.32,381.876,10593.1,12.3171,14.6798,4.17682
173,0,-1811.22,726.641,10636.2,-1.53945,31.6309,1.05196,-2073.36,432.148,10507,9.87828,18.4143,3.93296
173,1,-2105.67,529.137,10688.9,-4.48149,35.0607,-2.36252,-1835.19,464.474,10566.8,7.94219,20.1219,1.69228
174,0,-2308,306.473,10923.5,-5.60972,36.7987,-2.71348,-2365.41,-47.8345,10905.6,5.22888,23.5973,0.426882
174,1,-2413.35,221.467,11127,-5.82316,37.6676,-2.17991,-2533.07,-198.721,11015.7,4.54268,24.8323,0.381085
175,0,-2835.89,199.917,11246.8,-6.95112,37.18,-2.75908,-3247.67,-126.899,11129.4,2.74408,23.6434,-0.44199
175,1,-2882.63,171.188,11390.4,-9.14617,35.8081,-1.38735,-3314.79,-137.664,11238.4,1.90551,22.9116,0.274294
176,0,-2907.75,98.1684,11487.4,-12.6827,34.1922,-1.49384,-3184.3,-209.487,11441.9,-2.88065,21.113,0.152483
176,1,-2893.4,-88.5697,11704,-18.78,33.872,-1.57014,-3131.62,-208.298,11473,-5.86877,20.2287,-0.182909
177,0,-3087.3,-240.608,12129,-22.6827,35.2285,0.71625,-3308.77,-481.208,12048.8,-10.8685,21.7681,2.17965
177,1,-3374.61,-369.895,12607.8,-25.3352,35.7622,6.12761,-3572.13,-596.154,12172.1,-13.064,22.7744,3.94808
178,0,-3393.79,-456.09,13111.8,-20.7627,36.2042,9.69493,-3549.41,-1228.17,13060.3,-10.1832,22.7897,10.7616
178,1,-3372.23,-578.19,13570.3,-12.8969,36.4787,8.53676,-3497.93,-1440.11,13407.5,-7.04289,23.1555,12.7439
179,0,-3385.4,-688.326,13806.2,-8.52157,36.7988,7.10374,-3548.2,-1283.31,13716.4,1.1121,24.0701,9.6192
179,1,-3307.6,-641.653,13848.1,-7.46954,36.936,6.64636,-3517.09,-1262.94,13911.5,3.09456,24.5579,8.78047
180,0,-3211.83,-696.705,13751.1,-6.50923,39.0547,8.04865,-3403.37,-1244.99,13732,3.88711,26.9663,10.4877
180,1,-3142.39,-773.322,13675.7,-6.40242,43.2771,10.0456,-3227.4,-1231.82,13657.7,3.93295,28.7042,11.631
181,0,-3123.24,-966.044,13474.6,-7.37797,47.1949,10.9146,-3179.5,-1535.85,13365.7,2.28673,34.1001,12.7895
181,1,-3010.72,-1240.18,13254.3,-7.91157,49.5731,10.4421,-3078.95,-1634.04,13135.8,1.4482,36.1585,13.0183
182,0,-2916.14,-1441.3,12928.7,-5.42707,51.3414,10.0153,-3099.29,-1966.81,12689.3,4.77102,38.6126,11.8904
182,1,-2782.07,-1545.45,12539.7,-3.56717,50.2136,11.4938,-3149.57,-2074.58,12483.4,5.96036,38.7501,11.8902
183,0,-2420.57,-1576.58,12522.9,0.0149385,53.079,15.0302,-2370.33,-2202.65,12498.9,8.35344,39.8627,16.2649
183,1,-2398.98,-1440.13,12493,7.63658,61.0207,20.4722,-2053.03,-2206.26,12583.9,10.6096,42.0883,18.4603
184,0,-2424.13,-1307.24,12071.6,15.8531,66.768,25.0607,-2394.17,-1945.31,12029.7,21.8435,52.6058,26.2188
184,1,-2394.2,-1077.41,11388.1,20.0608,69.7102,26.2805,-2442.09,-1783.69,11704.1,26.7987,56.2348,29.1311
185,0,-2201.49,-758.985,10612.4,22.8504,75.3807,24.741,-2084.18,-1186.38,10632.7,30.3656,64.8011,26.6618
185,1,-2047.05,-553.072,10088,21.3417,83.0635,21.3265,-1933.32,-873.895,10089.2,30.808,69.4053,25.1982
186,0,-2026.69,-429.767,9300.34,16.3114,91.2799,18.6282,-1938.1,-603.36,9041.79,23.9336,78.9626,21.5705
186,1,-1990.78,-477.636,8477.92,9.75658,99.2068,19.5578,-1958.46,-480.042,8528.16,20.427,83.4145,20.7927
187,0,-1970.43,-707.468,7948.78,5.48805,105.823,23.0333,-1999.16,-1013.89,7880.57,13.2323,92.4992,25.716
187,1,-2215.81,-944.497,7389.75,6.96625,108.064,29.3745,-2144,-1294.06,7595.61,11.0213,95.8232,28.4603
188,0,-2474.39,-997.185,6561.37,11.6307,102.668,35.8228,-2845.45,-1405.39,6477.61,17.7128,90.0768,37.987
188,1,-2507.93,-823.621,5767.68,17.4081,91.9673,40.8076,-3050.21,-1367.1,5892.15,20.7164,85.8692,41.6311
189,0,-2517.5,-442.957,5154.76,26.4475,79.7418,45.2893,-3023.88,-1069.04,5315.17,30.7613,71.4495,46.402
189,1,-2440.9,-33.5469,4762.09,33.2618,72.4852,48.5974,-3063.38,-908.606,4993.12,38.3228,62.5462,49.756
190,0,-2068.62,408.18,4595.68,41.2799,62.135,52.7589,-2590.57,-221.525,4668.72,50.4106,48.7054,55.7617
190,1,-1813.62,733.803,4431.68,47.8655,53.7048,54.1768,-2240.99,122.093,4559.76,55.0609,42.9727,57.6982
191,0,-1497.6,1163.55,4159.95,48.0946,50.0154,54.0397,-1737.03,1143.14,4108.49,55.0153,38.5522,56.8294
191,1,-1009.19,1764.48,3847.5,42.6529,47.5154,52.363,-1381.47,1660.36,3909.74,53.8721,36.2501,56.6159
192,0,-621.319,2406.13,3570.97,35.8999,46.7988,48.2625,-755.422,2467.16,3519.51,45.4886,34.6343,51.6621
192,1,-439.345,2975.96,3354.29,29.6346,49.5577,45.427,-548.274,2829.94,3391.39,40.7014,35.3962,48.1709
193,0,-205.92,3317.15,3210.63,20.8391,53.4144,43.4148,-314.858,3417.67,3203.46,30.6716,40.0454,46.2349
193,1,-106.545,3428.49,3294.41,10.9611,55.7164,40.8234,-210.692,3654.74,3134.01,25.5033,42.1036,45.0153
194,0,-235.816,3406.95,3515.87,4.08577,54.3752,38.0185,-517.119,3353.11,3490.71,14.5284,41.1739,41.4637
194,1,-350.744,3355.48,3932.44,1.84458,52.1343,35.5794,-647.629,3278.86,3725.37,10.4574,39.7867,39.2684
195,0,-395.041,3281.26,4521.41,2.82001,45.778,29.6499,-828.378,2977.22,4507.02,13.1247,30.26,29.3911
195,1,-466.863,3250.13,5105.6,5.79245,37.2567,19.7721,-875.082,2873.04,4955.98,15.1371,25.5947,24.2075
196,0,-614.101,3149.58,5452.78,7.97244,30.1224,7.69903,-1007.95,2765.31,5601.18,17.9571,17.8818,9.36105
196,1,-1072.56,2761.74,6005.81,9.87792,25.0461,-2.28596,-1182.72,2585.75,5908.88,19.192,14.5733,2.94223
197,0,-1477.2,2323.6,6461.92,10.1372,22.4849,-9.78611,-1674.7,2031.53,6489.43,20.3353,11.2503,-7.27047
197,1,-1885.4,1875.89,6929.98,8.32333,22.8353,-14.4052,-1885.43,1780.1,6828.25,20.3506,10.3354,-11.4024
198,0,-2189.48,1417.4,7372.92,5.64044,25.4419,-16.3719,-2279.25,1206.73,7293.9,16.3113,13.2924,-13.948
198,1,-2589.3,1126.49,7655.44,2.97274,29.329,-16.3872,-2274.5,798.487,7618.33,14.8171,15.823,-14.6951
199,0,-3052.58,1057.04,7857.76,-1.02104,31.3261,-14.0398,-3143.5,812.823,7831.42,10.5949,18.765,-12.4545
199,1,-3270.47,920.583,7984.66,-4.83208,31.1891,-12.4239,-3451.24,803.258,7917.62,8.29277,19.7561,-10.747
200,0,-3318.36,747.003,7888.91,-6.73772,30.6708,-11.8598,-3456.03,520.763,7908.05,3.78087,18.2166,-9.78665
200,1,-3387.79,553.074,7539.37,-9.90829,29.5885,-11.9512,-3453.64,380.683,7800.32,1.82932,17.6372,-9.939
201,0,-3427.3,477.645,7325.07,-14.3747,27.7593,-9.22282,-3675.08,274.144,7303.55,-4.11534,14.5582,-6.49423
201,1,-3415.33,501.582,7291.54,-17.4236,25.2898,-4.08575,-3803.18,215.481,7192.18,-6.67677,12.8964,-4.16169
202,0,-3312.39,591.361,7328.65,-17.1342,22.5764,-2.91157,-3533.87,216.674,7267.59,-5.6556,9.93927,-0.991104
202,1,-3373.42,653.614,7405.26,-16.7835,18.3692,-6.37165,-3430.89,231.039,7323.86,-5.24391,7.8812,-1.98154
203,0,-3368.65,694.316,7502.22,-16.2196,13.5369,-3.93325,-3647.55,277.724,7504.61,-4.87808,1.23532,-1.7074
203,1,-3281.26,693.122,7606.37,-15.5793,9.25333,1.32586,-3666.72,284.911,7560.89,-4.57319,-1.44812,-0.122066
204,0,-3270.48,657.211,7787.13,-14.4208,5.12223,3.78039,-3573.35,156.831,7869.71,-3.00318,-7.22512,4.23746
204,1,-3253.72,588.979,8115.12,-12.5764,1.11307,2.9117,-3526.66,71.8299,8026.56,-1.95127,-9.81701,5.36587
205,0,-3257.31,544.683,8440.74,-11.5244,-0.655419,2.31709,-3483.57,93.3707,8349.75,0.472362,-13.2619,3.65868
205,1,-3286.04,633.258,8655.03,-10.4726,-1.41764,3.17065,-3489.55,94.5719,8541.31,1.63106,-14.5122,3.70422
206,0,-3312.38,723.044,8693.35,-9.72565,-1.03663,4.20725,-3484.76,356.713,8653.83,2.36275,-13.7958,5.18282
206,1,-3271.68,806.84,8669.41,-10.7164,0.472445,4.0854,-3420.12,420.185,8659.83,2.19515,-13.308,5.70121
207,0,-3227.39,842.758,8601.18,-12.2865,2.69802,3.68905,-3363.86,487.213,8562.87,-0.396126,-10.2594,4.7257
207,1,-3192.67,869.093,8469.5,-14.2834,5.35043,3.64329,-3348.29,548.269,8493.43,-1.44815,-8.71956,4.66461
208,0,-3162.74,915.779,8328.24,-15.6859,7.81997,3.79572,-3314.77,545.879,8347.4,-3.62787,-5.38137,5.39629
208,1,-3148.38,900.222,8175.01,-17.1645,9.10055,4.29874,-3339.91,533.908,8299.5,-4.78655,-3.91772,5.79267
209,0,-3145.98,890.643,8092.41,-18.2469,8.73481,4.54268,-3351.88,477.648,8086.43,-6.26513,-4.10058,6.12803
209,1,-3052.62,897.825,8016.99,-17.4696,7.43912,4.25308,-3348.29,456.096,8062.47,-6.66159,-4.6646,6.12806
210,0,-2899.39,972.04,7856.58,-16.2196,6.25007,4.05489,-3174.73,562.628,7866.17,-4.13132,-6.96628,5.45738
210,1,-2790.45,1089.35,7784.75,-15.5945,3.91786,2.42392,-3034.66,634.46,7730.88,-3.06405,-8.50603,5.19818
211,0,-2717.42,1188.72,7675.82,-15.3506,1.12823,0.884234,-3096.89,811.62,7684.19,-2.66771,-12.4844,2.89654
211,1,-2653.98,1261.74,7584.84,-15.4421,-2.27111,1.2347,-3094.51,884.656,7675.81,-2.83534,-14.4512,2.49997
212,0,-2494.77,1300.05,7407.67,-15.4878,-4.72548,1.05187,-2710.27,944.508,7395.71,-3.10974,-17.3473,2.25613
212,1,-2446.87,1292.87,7290.35,-15.3049,-6.24992,-1.14311,-2596.51,966.06,7320.27,-2.98782,-18.5975,1.67687
213,0,-2454.06,1277.31,7261.61,-14.9695,-8.41448,-3.42974,-2689.88,963.667,7247.26,-2.24091,-21.3717,-1.67655
213,1,-2388.22,1280.9,7183.81,-14.4208,-11.1279,-4.46642,-2737.77,955.287,7228.09,-1.92074,-22.5762,-3.01827
214,0,-2308.02,1225.84,7058.12,-12.2105,-12.3323,-4.13114,-2589.34,802.071,7079.67,0.670511,-24.7864,-2.56102
214,1,-2245.76,1177.95,6985.09,-11.7988,-13.003,-2.77449,-2480.4,798.462,6968.33,1.84449,-25.3049,-2.14941
215,0,-2148.8,1247.37,6742.09,-12.5304,-14.131,-2.37805,-2364.28,997.169,6721.74,1.17385,-26.7072,-1.11289
215,1,-1966.85,1266.53,6406.91,-14.1615,-14.5884,-2.92678,-2310.41,1072.6,6517.03,0.457357,-27.1951,-1.02132
216,0,-1782.49,1289.28,6126.78,-17.3321,-15.4115,-3.79567,-2066.22,1102.53,6136.37,-4.40509,-28.5212,-2.51512
216,1,-1709.46,1340.75,5929.25,-19.4664,-17.134,-2.78974,-2012.32,1100.14,5980.72,-6.57007,-29.2835,-2.4848
217,0,-1488.01,1401.8,5590.49,-18.7349,-19.9541,-1.78359,-1675.97,1118.09,5499.52,-5.35073,-33.0028,-1.17388
217,1,-1198.32,1453.28,5251.7,-17.0276,-23.201,-2.86575,-1528.7,1182.73,5272.04,-4.64941,-34.939,-1.06705
218,0,-938.543,1544.25,5024.24,-12.9729,-28.0027,-4.71025,-1194.73,1165.98,5054.18,0.0910678,-40.5331,-3.17056
218,1,-800.867,1473.64,4939.24,-9.57336,-34.6794,-6.14321,-1097.74,1200.69,4953.61,2.88099,-42.9116,-4.3902
219,0,-348.393,1520.31,4683.08,-6.00634,-42.7739,-7.46943,-508.818,1252.16,4657.94,7.72828,-54.2216,-5.62491
219,1,63.4233,1517.93,4447.24,-2.91177,-46.3871,-10.1827,-128.105,1328.78,4466.39,9.93897,-58.3841,-6.89017
220,0,282.505,1486.8,4442.44,0.228452,-48.2164,-11.0213,65.8292,1246.19,4527.43,13.9326,-60.0914,-9.20715
220,1,347.157,1411.39,4519.05,1.95114,-49.1616,-11.0823,124.497,1218.65,4483.15,15.9603,-60.8842,-10.1067
221,0,447.708,1331.18,4593.27,3.44502,-50.7926,-10.6403,229.835,1213.86,4569.32,18.0486,-62.9419,-9.35983
221,1,568.615,1233.02,4704.6,4.98466,-51.372,-11.0823,338.773,1143.24,4617.22,18.8415,-63.689,-9.22255
222,0,1086.93,897.852,5094.83,7.88089,-47.0583,-14.7558,1067.75,775.75,5105.59,22.3778,-57.6835,-14.3441
222,1,1045.09,884.65,5544.94,7.34768,-41.6772,-17.7895,1065.44,775.712,5310.34,23.2622,-54.9391,-16.7225
223,0,1174.34,968.45,6265.57,5.97569,-32.9122,-20.198,1471.2,957.669,6333.78,19.8326,-43.9948,-19.009
223,1,1283.29,1144.42,7083.19,1.00649,-22.1501,-26.3715,1632.85,1073.79,6803.11,17.9421,-38.2776,-21.0212
224,0,970.876,1329.97,7733.23,-11.6149,-9.97031,-35.7768,1219.88,1628.01,7515.34,4.46758,-24.9858,-32.1637
224,1,646.453,1101.36,8337.77,-31.4468,3.64241,-45.3805,1028.31,1859.09,7824.24,-7.75849,-16.1285,-39.2985
225,0,341.194,496.84,9240.36,-50.319,17.5601,-54.3745,705.118,727.935,8987.74,-34.1443,0.791383,-50.1821
225,1,-472.792,-83.7624,10471,-59.0241,24.6491,-59.512,387.879,211.898,9635.44,-44.6797,8.24676,-55.2438
226,0,-1673.47,-410.589,11778.2,-62.6675,26.4939,-64.6033,-1860.11,-870.205,11624.9,-50.0301,10.4877,-63.2616
226,1,-2878.95,-700.285,12920.2,-60.0308,17.9276,-67.3475,-2966.38,-1248.57,12495.3,-50.4269,8.64349,-66.189
227,0,-3458.4,-973.226,13587.1,-50.9915,2.05902,-66.8446,-4123.93,-1995.51,13806.1,-35.5195,-14.0378,-64.741
227,1,-4034.19,-1218.63,14620.1,-35.87,-14.6026,-62.9577,-4614.81,-2348.7,14403.5,-27.5155,-24.4052,-63.3842
228,0,-4291.6,-919.404,15689.1,-18.9035,-26.8134,-58.2015,-4283.26,-1788.52,15837.5,-5.9316,-38.3221,-56.2049
228,1,-4959.54,-512.383,16645.6,-7.18051,-28.5519,-53.8113,-4519.03,-1589.75,16452.9,3.24676,-42.7134,-55.5944
229,0,-5526.99,14.3291,17478.8,-1.12835,-22.5157,-46.2506,-5379.71,-620.18,17410.6,11.478,-34.6044,-45.7326
229,1,-5756.85,499.162,17991.2,-0.624943,-12.333,-45.3658,-5655.1,-221.47,17805.7,13.5976,-29.8325,-41.9817
230,0,-6185.39,591.37,17729.1,-5.5179,1.72161,-45.4726,-5969.92,105.32,17571.1,7.16517,-11.5868,-44.5425
230,1,-6427.23,494.41,16788.2,-13.4751,16.9198,-37.7293,-6362.57,155.627,17256.2,3.4605,-3.12522,-43.8264
231,0,-6274.02,47.919,15549.2,-19.1308,26.7221,-32.3021,-5964,-392.605,15647.4,-8.09359,14.7547,-31.2663
231,1,-6318.29,-489.581,14192.9,-24.8777,40.563,-29.3295,-5780.8,-713.46,14888.4,-13.0487,23.7192,-26.936
232,0,-6332.67,-762.542,13284.3,-29.329,49.9081,-24.8174,-6277.56,-1267.69,12977.9,-19.3288,35.9747,-21.1133
232,1,-6246.48,-1049.84,12335,-30.4421,50.7928,-18.1407,-6473.92,-1608.89,12257.1,-21.9664,39.7409,-17.9727
233,0,-5864.62,-1248.57,11409.6,-26.7838,43.2628,-11.54,-6264.45,-1874.64,11318.7,-16.1133,29.1014,-9.46709
233,1,-5063.79,-1115.71,10600.4,-21.3875,31.0678,-4.81747,-5548.61,-1786.09,10766.7,-12.805,21.9363,-4.80198
234,0,-3981.62,-785.319,10028.1,-14.4212,18.6592,0.5485,-4203.11,-1456.89,10137.1,-4.23843,7.37908,2.02697
234,1,-3021.53,-51.5245,9485.86,-8.90272,8.43043,4.19189,-3711.02,-1224.64,9829.41,0.0760971,1.05197,4.08537
235,0,-2275.73,773.281,9156.64,-8.41458,0.137646,7.28641,-2825.22,330.284,9230.89,3.07908,-10.7309,7.60644
235,1,-1577.82,1404.17,8956.72,-12.454,-6.58501,9.0548,-2449.28,976.823,8969.88,3.30797,-15.5487,9.55787
236,0,-1097.76,1798.03,8904.04,-15.823,-10.1828,8.56714,-1419.84,1527.46,8905.24,-3.65802,-23.094,8.62814
236,1,-741.025,1813.61,9045.28,-19.1309,-10.8079,4.5887,-957.691,1634.05,8963.89,-6.37192,-24.8933,7.17996
237,0,-623.692,1697.5,9222.46,-21.2804,-8.32336,0.0612256,-677.577,1369.5,9264.34,-9.03945,-21.0826,1.61625
237,1,-695.509,1472.45,9481.02,-22.1189,-2.92718,-1.5396,-587.777,1270.13,9406.81,-9.74087,-18.7806,-0.442049
238,0,-963.648,1271.33,9653.41,-23.3993,1.52417,-1.38722,-1104.88,1012.77,9599.54,-11.2042,-12.2871,0.2286
238,1,-1065.42,1046.28,9866.49,-23.9634,4.96933,-1.7835,-1253.37,792.491,9740.8,-12.3475,-9.87808,0.35062
239,0,-1033.1,914.59,10023.3,-22.5154,8.62784,-2.59142,-1201.89,524.347,9976.62,-10.7776,-4.77172,-0.884058
239,1,-1095.34,976.828,10037.7,-20.5032,11.4023,-1.79886,-1219.84,561.432,10074.8,-9.54274,-2.60675,-1.18903
240,0,-1098.94,1217.44,10135.8,-18.4452,12.1494,-1.18905,-1259.35,817.604,10177.7,-7.86597,-1.15863,0.487683
240,1,-1185.12,1370.67,10228,-13.4455,13.5212,-0.86892,-1268.93,775.73,10273.5,-5.86902,-0.868893,0.487846
241,0,-1234.21,1455.67,10189.7,-10.5794,14.9694,-0.746955,-1333.57,1010.33,10205.3,0.121544,2.42353,0.442063
241,1,-1347.93,1460.46,10001.8,-10.0305,17.4084,-2.0121,-1376.66,1151.61,10099.9,2.04268,3.81096,0.304892
242,0,-1502.35,1268.94,9823.42,-11.7834,20.5334,-4.31389,-1610.08,992.41,9841.38,-1.08208,7.92653,-2.91135
242,1,-1638.82,1048.67,9718.07,-13.3841,23.4907,-7.08826,-1667.56,822.417,9756.37,-2.45425,9.95422,-4.64934
243,0,-1850.7,730.251,9617.51,-14.1768,25.1219,-10.0913,-1974,304.099,9603.15,-3.01826,11.9206,-8.07904
243,1,-2118.85,357.954,9612.72,-14.4207,25.7469,-11.8597,-2175.12,57.4672,9538.5,-3.39937,13.0945,-9.878
244,0,-2400.17,15.5805,9587.58,-14.0854,25.0763,-10.7775,-2663.52,-380.648,9555.26,-3.10978,12.2409,-8.65865
244,1,-2546.23,-286.091,9487.03,-13.186,23.5367,-8.29284,-2844.31,-563.831,9504.98,-2.89635,11.7073,-7.53054
245,0,-2506.73,-459.679,9503.78,-11.0977,21.9208,-5.97573,-2735.38,-884.635,9514.56,-0.625164,9.45138,-4.57337
245,1,-2420.54,-500.388,9551.67,-7.92702,21.4329,-2.59167,-2652.78,-986.411,9549.27,0.71642,8.62806,-3.20125
246,0,-2316.4,-409.415,9494.21,-4.46666,22.7743,1.60037,-2462.45,-903.817,9496.61,5.62466,9.92369,2.98737
246,1,-2217.04,-173.595,9414,-2.91164,23.8262,3.5975,-2353.5,-667.997,9411.61,7.60668,10.686,5.27437
247,0,-2024.31,138.846,9351.75,-2.6372,24.6646,4.99992,-2178.74,-225.082,9332.6,7.69818,11.8902,6.96635
247,1,-1903.39,320.816,9294.29,-4.03953,25.7012,5.86887,-2100.91,-61.055,9306.26,7.40856,12.3933,7.36282
248,0,-1849.52,490.802,9244.01,-6.34133,26.5701,5.80795,-2009.94,203.489,9221.27,4.25327,13.4908,7.27135
248,1,-1824.38,604.531,9289.5,-7.72861,26.7683,4.86287,-1989.58,283.713,9186.55,2.95734,13.8415,7.30183
249,0,-1841.14,706.284,9434.34,-8.17072,25.7623,2.88122,-2096.12,350.746,9446.3,2.17993,12.9269,4.71056
249,1,-1833.96,808.038,9738.4,-7.45433,23.7806,1.35678,-2141.61,362.722,9637.85,2.27132,11.936,3.61282
250,0,-1857.9,984.006,9990.99,-5.41171,21.5855,0.122016,-2177.52,506.363,10031.7,4.84739,9.00934,2.02755
250,1,-1928.53,1131.25,10096.3,-3.44522,19.8019,-0.457298,-2177.53,630.867,10119.1,6.2652,7.97257,1.52439
251,0,-1873.47,1113.31,10167,-2.85062,19.2531,-1.37189,-2005.16,720.65,10198.1,8.06391,6.82935,0.747007
251,1,-1794.46,1071.41,10256.8,-3.07925,19.939,-2.33227,-1869.88,731.429,10181.3,8.46038,6.87497,0.0305203
252,0,-1912.96,1034.3,10291.5,-4.0853,22.7895,-3.33836,-2059,763.748,10219.6,6.5855,11.0363,-1.53953
252,1,-2066.19,1035.49,10338.2,-6.76813,25.8992,-3.73475,-2141.61,811.632,10241.2,5.42687,13.1554,-2.14938
253,0,-2224.2,931.352,10384.8,-9.57303,28.6127,-4.00913,-2342.71,550.686,10378.9,1.31125,15.9754,-1.92075
253,1,-2329.55,737.425,10542.9,-11.3414,31.9206,-4.95421,-2394.2,420.185,10424.4,-0.274371,17.3323,-2.1951
254,0,-2527.07,638.058,10839.7,-11.0214,35.4114,-5.38109,-2626.42,170.005,10823,-0.365854,22.0729,-3.3231
254,1,-2779.65,661.994,10972.6,-10.747,38.5212,-4.64945,-2780.86,141.254,11020.5,-0.228668,24.4207,-3.33844
255,0,-2952.04,642.845,10989.4,-11.189,41.006,-2.92693,-3060.97,165.199,10959.5,-1.14323,27.9419,-0.945283
255,1,-3113.65,409.424,10967.8,-13.2163,43.003,-1.61591,-3135.21,102.955,11050.4,-1.41769,29.3902,-0.137198
256,0,-3227.38,442.92,11010.9,-16.3108,42.058,0.990691,-3454.81,-51.466,11100.7,-6.79841,28.0946,2.62176
256,1,-3373.42,507.569,11034.9,-16.0824,41.814,1.53965,-3508.71,-77.8128,11072,-7.08852,28.0793,4.13106
257,0,-3633.19,448.918,11392.8,-16.4176,41.8903,1.00613,-3864.22,-10.7782,11344.9,-7.08838,28.689,3.23179
257,1,-3910.91,408.213,11945.8,-16.5092,41.2958,4.05466,-4071.33,-116.11,11640.6,-7.53047,28.4299,3.96334
258,0,-4119.21,391.453,12255.9,-15.183,38.4453,7.27119,-4583.67,-93.3783,12321.7,-4.92397,24.5887,8.5363
258,1,-4341.87,495.592,12605.5,-15.442,34.4057,8.76519,-4756.08,-21.5513,12583.9,-4.07012,22.3019,10.1677
259,0,-4540.59,696.701,13166.9,-19.1004,31.8904,8.70429,-4863.81,304.042,13238.7,-8.15521,18.9331,10.061
259,1,-4809.94,758.961,13942.6,-25.0911,31.311,9.23776,-4991.9,424.97,13558.4,-11.7529,17.4696,10.0915
260,0,-5182.23,527.938,14670.4,-31.143,31.7835,12.4693,-5493.46,68.2599,14632.1,-19.5879,17.6829,13.323
260,1,-5374.98,-31.0911,15073.9,-35.2285,33.6889,17.0424,-5653.91,-167.586,15039.2,-22.7743,17.8963,15.4877
261,0,-5319.92,-852.29,15182.8,-35.183,40.213,20.9754,-5267.27,-1534.59,15156.5,-24.695,25.0148,21.3868
261,1,-5345.05,-1589.71,14845.3,-32.363,49.3288,26.5088,-5141.55,-2117.66,15055.9,-24.3751,29.3444,24.2377
262,0,-5233.73,-2045.83,13989.4,-30.5641,54.2681,30.7925,-5228.93,-2588.1,14088.7,-21.2959,39.8317,33.6274
262,1,-4939.26,-2176.33,12902.4,-29.6037,56.8597,37.0118,-5232.53,-2740.16,13594.3,-20.3201,43.5213,37.881
263,0,-4661.52,-2112.89,12137.4,-27.6068,54.6953,44.0393,-4843.5,-2646.8,11980.7,-17.927,39.8174,46.2037
263,1,-4086.94,-1865.1,11164.2,-24.1313,49.3906,50.8228,-4662.71,-2585.74,11226.4,-16.4025,37.6678,49.9847
264,0,-3310.03,-1417.39,10179,-17.3632,43.2168,56.4327,-3513.57,-2026.73,10034.2,-7.47011,29.1469,57.7739
264,1,-2500.78,-879.897,9391.29,-6.50976,38.7655,60.5334,-2938.9,-1825.58,9558.86,-2.6983,25.9452,61.2042
265,0,-1379.12,-573.423,8619.17,7.6212,42.3778,59.2227,-678.905,-1711.86,8543.77,16.6756,30.7771,60.747
265,1,-928.96,-168.815,8397.67,21.9962,49.9386,55.0917,-557.808,-1133.69,8299.49,25.8992,34.634,56.8295
266,0,-852.338,231.021,8382.1,32.2252,60.2739,55.6097,-617.714,-274.182,8355.76,39.1455,45.7463,58.445
266,1,-806.848,444.116,8268.38,33.7653,72.9262,54.4666,-620.095,38.3014,8307.88,43.9634,51.3109,59.2074
267,0,-780.511,684.728,8256.4,32.1647,79.8778,52.4391,-658.404,415.371,8198.95,39.4973,66.7826,54.7564
267,1,-854.725,877.466,8243.24,30.1068,86.0363,47.4698,-719.454,603.334,8183.38,37.4696,72.8048,52.0123
268,0,-855.929,1066.61,8056.5,27.927,89.3749,41.54,-708.686,946.885,7710.56,34.6191,77.3778,43.9944
268,1,-851.138,1130.06,7490.29,24.36,94.9235,36.5856,-681.152,1118.09,7393.31,32.805,80.1067,40.5489
269,0,-927.748,926.57,6872.59,17.6833,101.478,34.4208,-962.45,942.132,6697.82,24.589,88.277,37.8203
269,1,-1107.31,792.485,6367.4,10.8083,104.71,34.1768,-1144.42,883.46,6404.49,20.6708,91.3567,36.8293
270,0,-1277.3,817.617,5764.07,6.81418,102.637,33.6586,-1582.54,706.302,5652.76,14.6193,89.238,36.2653
270,1,-1442.5,926.55,4956.04,5.30493,97.104,32.7897,-1758.54,689.527,5292.39,12.6067,87.7897,35.9604
271,0,-1613.68,961.272,4086.95,4.28359,88.6438,34.3901,-2120.04,786.49,4100.15,11.7379,76.769,37.2865
271,1,-1689.11,879.875,3305.23,2.05806,79.2078,38.4754,-2229,803.255,3532.66,11.4177,71.113,38.4299
272,0,-1628.06,855.927,2812.01,0.487867,73.4454,42.3322,-2215.83,713.478,2861.11,8.70445,60.1836,44.9691
272,1,-1464.06,925.354,2832.33,1.28041,64.1317,47.1187,-2165.56,659.604,2715.02,7.89634,54.3904,48.5365
273,0,-1338.36,1091.75,3149.55,7.81971,51.5708,48.4604,-1866.3,453.714,3226.15,17.8042,37.2267,49.8475
273,1,-1247.38,1229.42,3381.8,18.3379,38.461,46.9209,-1768.12,488.41,3415.33,23.2925,29.2532,49.5732
274,0,-985.23,1517.91,3791.19,26.1887,27.9578,44.619,-1246.22,1222.19,3987.51,35.1822,15.6106,46.0978
274,1,-700.318,1859.08,4443.6,29.6493,20.9302,41.052,-1094.15,1599.32,4279.63,39.4512,10.2897,44.3141
275,0,-466.88,2245.74,5062.51,28.4605,17.5154,33.5218,-691.951,2121.23,5068.47,38.9025,6.32646,36.3115
275,1,-411.803,2504.32,5784.35,24.299,17.1189,22.6988,-541.091,2336.74,5445.6,36.9666,4.52748,29.3753
276,0,-663.177,2456.46,6536.13,19.2686,18.3383,14.0553,-837.951,2309.21,6478.65,30.915,6.02123,17.1806
276,1,-973.228,2225.42,7085.62,13.8265,20.5944,8.15575,-1006.76,2221.82,6895.29,28.0336,6.85974,12.683
277,0,-1278.49,1983.61,7396.87,7.08877,23.4145,1.79911,-1385.02,1878.27,7301.09,19.4975,10.5638,5.10718
277,1,-1645.99,1698.7,7532.15,2.97271,24.9695,-2.53032,-1578.97,1663.98,7426.81,15.2593,11.814,1.44825
278,0,-2023.08,1429.35,7523.78,-0.319959,26.6615,-7.34731,-2103.27,1261.77,7473.5,10.1375,14.1614,-5.82273
278,1,-2263.71,1271.33,7480.69,-1.84447,27.0427,-10.259,-2291.25,1067.82,7510.61,8.32319,15.0762,-8.61278
279,0,-2492.35,985.23,7419.63,-2.439,27.0122,-11.5701,-2610.86,559.077,7410.06,7.82015,14.7104,-9.87798
279,1,-2609.68,623.707,7377.73,-3.15545,28.2012,-12.2408,-2754.53,361.527,7356.19,7.68293,14.7104,-10.3354
280,0,-2966.39,420.19,7383.72,-4.17678,28.7805,-11.1434,-3295.58,134.089,7378.93,6.49398,16.0365,-8.99399
280,1,-3298,354.344,7453.15,-5.13715,27.0581,-9.58849,-3536.23,40.7028,7413.64,5.82319,16.2805,-7.94211
281,0,-3514.68,276.535,7571.66,-4.81711,23.171,-8.0641,-3773.25,-117.306,7554.9,6.189,10.9607,-6.37204
281,1,-3566.16,225.057,7636.3,-3.85676,19.1465,-3.56734,-3913.32,-217.869,7577.65,6.7073,8.47566,-5.13725
282,0,-3527.86,287.3,7693.76,-3.00309,15.6099,1.326,-3835.52,-116.126,7656.65,7.83531,4.16184,1.56972
282,1,-3468,462.071,7781.15,-2.80488,13.6129,3.59749,-3812.77,-44.2948,7706.93,8.30792,2.16468,4.26826
283,0,-3330.34,630.865,7855.37,-3.21644,11.2654,5.01518,-3572.16,217.857,7793.12,8.07929,-1.34126,6.37183
283,1,-3228.58,720.652,7947.55,-4.58834,9.96956,4.77138,-3397.38,359.127,7851.78,7.43906,-2.57621,6.64637
284,0,-3089.72,870.284,8084.01,-5.91458,9.71037,3.88724,-3190.28,568.611,8074.43,5.5184,-2.98778,5.33544
284,1,-2902.98,1101.32,8106.77,-8.46023,10.7926,3.24698,-3081.34,739.802,8069.66,4.34455,-2.78966,4.93903
285,0,-2814.39,1249.77,8127.12,-12.637,13.2163,2.10372,-2920.94,998.368,8127.11,-0.700918,0.289449,3.97872
285,1,-2840.72,1325.19,8157.04,-16.8443,15.0914,1.08236,-2952.05,1090.56,8204.93,-3.23165,1.4634,3.10979
286,0,-2803.61,1351.53,8271.96,-19.5121,15.3964,0.121997,-2996.34,949.31,8372.51,-7.42354,2.1646,1.96652
286,1,-2819.17,1437.71,8336.61,-18.7806,14.1769,-0.716427,-3041.83,896.629,8451.53,-8.67379,2.05795,1.37197
287,0,-2887.4,1501.16,8360.55,-17.4848,11.1739,-1.82921,-3230.96,1010.35,8464.7,-6.00626,-1.2498,0.0915368
287,1,-2899.38,1527.5,8491.03,-16.5092,8.70437,-2.72862,-3257.31,1084.57,8487.44,-4.89331,-3.32311,-0.716438
288,0,-2843.12,1507.15,8687.35,-15.0458,5.65564,-3.84141,-3110.08,1039.09,8699.32,-2.71354,-7.17967,-2.4999
288,1,-2835.93,1502.36,8886.07,-13.7196,4.08541,-5.06092,-3053.8,1045.07,8760.38,-1.69209,-8.67377,-3.09451
289,0,-2835.93,1471.24,8974.66,-14.2835,4.61886,-6.41762,-2964.03,1060.63,8937.54,-2.40849,-7.95737,-4.93892
289,1,-2863.46,1338.37,9063.25,-15.9908,6.66148,-7.91152,-2981.98,1016.34,9040.5,-3.23168,-7.27137,-5.86889
290,0,-2898.18,1229.43,9048.89,-17.5609,9.58828,-9.02435,-3011.9,882.271,9001,-5.42671,-3.24719,-7.5304
290,1,-3035.84,1149.22,8924.39,-18.6585,12.6523,-9.35975,-3081.33,839.168,8943.54,-6.4634,-1.03664,-7.9116
291,0,-3143.58,1047.47,8693.36,-19.5884,14.6493,-9.11587,-3286.03,733.829,8686.18,-7.49995,1.46328,-7.36284
291,1,-3197.45,937.335,8377.33,-21.0518,15.1982,-10.0304,-3350.69,648.832,8561.67,-8.628,2.4695,-7.56096
292,0,-3290.83,827.202,8056.5,-22.378,14.6952,-10.7317,-3499.12,488.426,8102.01,-10.4572,1.82931,-9.28344
292,1,-3368.64,735.024,7729.7,-22.1799,13.5062,-9.84763,-3587.71,368.711,7896.08,-10.9756,1.53964,-9.63416
293,0,-3399.77,620.104,7424.43,-21.7836,12.3476,-8.73481,-3643.97,254.988,7456.77,-10.1068,-0.670598,-6.78371
293,1,-3433.28,499.197,7174.24,-21.3872,10.4727,-7.1952,-3640.39,196.326,7284.36,-9.5427,-1.90546,-5.4421
294,0,-3464.41,465.672,7000.65,-20.9604,7.37821,-4.93914,-3785.22,104.153,6989.89,-9.22258,-5.73149,-3.06416
294,1,-3353.09,511.159,6746.87,-21.0366,3.46055,-2.50011,-3760.1,119.707,6809.11,-8.78051,-8.59746,-1.17385
295,0,-3144.79,519.542,6448.8,-21.189,-1.0821,0.304746,-3426.12,144.849,6424.86,-8.93291,-14.1765,1.90533
295,1,-2804.82,542.285,6129.17,-20.8994,-5.31994,4.23761,-3251.33,159.214,6220.14,-8.79575,-16.7225,3.71946
296,0,-2494.77,604.533,5904.11,-20.8384,-9.22239,6.128,-2853.91,277.721,5914.89,-8.76525,-21.8137,6.95105
296,1,-2232.6,672.768,5805.94,-19.9391,-13.4297,6.76827,-2671.93,348.354,5829.88,-8.46039,-24.4664,8.01829
297,0,-1968.05,772.125,5620.4,-18.8568,-17.4846,9.26816,-2336.76,488.409,5634.77,-6.38732,-30.1674,10.884
297,1,-1610.12,1022.31,5406.12,-18.4147,-20.259,10.9756,-2062.61,657.201,5464.77,-5.50306,-32.5914,12.2866
298,0,-1294.08,1344.33,5094.88,-18.0336,-21.6311,10.7317,-1561.05,1040.26,5175.08,-4.7409,-35.0913,11.7531
298,1,-668.015,1549.04,4714.2,-18.064,-22.8963,8.39952,-1408.99,1236.6,4967.98,-4.5122,-35.9909,10.747
299,0,-332.803,1693.89,4361.05,-17.5153,-19.8478,5.44221,-621.342,1623.25,4227,-4.55793,-32.2411,6.73803
299,1,-228.649,2008.72,4017.49,-17.5915,-16.616,5.38106,-402.223,1875.85,3979.16,-4.48171,-30.3811,5.67072
300,0,22.731,2252.93,3758.91,-18.186,-17.7895,5.01528,-215.49,2085.34,3780.46,-5.59445,-32.2407,5.91463
300,1,463.256,2224.22,3640.39,-15.4727,-19.9694,0.06126,153.211,2039.87,3690.66,-5.10676,-33.3841,4.78666
301,0,770.922,2115.28,3752.9,-7.83577,-22.1341,-4.26813,426.158,1747.78,3861.84,3.73425,-34.8627,-1.96608
301,1,980.417,2238.57,3800.8,0.0149073,-25.1523,-2.66783,483.629,1701.08,3900.16,8.82609,-35.8536,-4.03964
302,0,1539.44,2479.18,3823.54,2.21035,-28.4907,-2.92677,1280.85,2403.74,3864.24,14.8777,-40.1979,-1.92086
302,1,2050.61,2560.6,3755.31,-3.67343,-31.2042,-9.87766,1643.61,2716.22,3790.02,15.6403,-42.1799,-2.36274
303,0,2322.37,2408.58,3784.03,-10.0607,-31.4635,-16.0973,2167.92,2700.66,3718.2,1.44899,-43.3384,-16.3712
303,1,2303.23,1924.96,4207.79,-20.6245,-31.0671,-25.4873,2274.5,2539.06,3801.99,-5.59437,-43.5214,-22.8353
304,0,1999.18,1188.76,5061.3,-30.5179,-31.8902,-35.1216,2003.96,1405.46,4841.02,-17.103,-45.0304,-34.1762
304,1,1722.64,736.232,5641.92,-35.2285,-32.1951,-42.6064,1823.19,817.633,5366.59,-21.0366,-45.5488,-38.8871
305,0,1234.24,284.932,6736.03,-37.3627,-33.7957,-49.3138,738.674,-62.2016,7078.36,-23.3993,-46.9207,-47.7282
305,1,571.048,-214.259,8233.59,-36.1586,-42.5148,-57.6063,129.302,-445.315,7925.99,-23.4604,-49.4359,-52.3322
306,0,88.6037,-508.758,10121.4,-31.1283,-54.4812,-69.0544,-488.386,-1058.2,10517.6,-15.8236,-65.8528,-67.9717
306,1,-560.211,-475.254,11759.1,-24.3753,-64.0088,-78.1704,-802.049,-1195.91,11621.4,-11.5702,-72.881,-74.817
307,0,-1370.64,-517.143,13201.6,-22.7591,-67.942,-82.6066,-1576.54,-869.113,13123.7,-6.99719,-78.4144,-80.9144
307,1,-2237.34,-605.729,14683.6,-24.7255,-67.5763,-84.0549,-1984.78,-794.873,13831.3,-6.49386,-80.4268,-83.1098
308,0,-3250.08,-752.969,16079.4,-25.3201,-62.9576,-83.4452,-3163.87,-1310.8,15824.4,-9.28339,-75.8845,-83.0946
308,1,-4236.5,-787.693,17374.7,-24.5732,-58.5063,-82.3019,-3689.46,-1458.07,16692.4,-9.93904,-72.9574,-82.3629
309,0,-5145.1,-501.602,18425.7,-22.0428,-49.5432,-79.177,-4820.66,-1260.56,18183.9,-6.58556,-59.5587,-77.8357
309,1,-5705.36,-274.144,18939.3,-19.3599,-37.8359,-74.8935,-5353.42,-1096.55,18784.9,-4.71041,-52.9575,-75.5336
310,0,-6352.98,39.4886,19395.4,-19.2225,-24.528,-67.0126,-6222.48,-621.321,19399,-5.64018,-37.2875,-66.1439
310,1,-6750.44,247.793,19391.8,-19.2531,-8.56781,-61.8752,-6403.3,-448.914,19557,-6.40242,-26.1437,-60.0917
311,0,-7092.81,247.802,18656.9,-21.0822,9.09983,-54.5583,-6800.71,-343.574,18400.7,-8.71939,-4.65052,-53.8723
311,1,-7240.06,1.21072,17438.2,-25.8229,30.3344,-40.5038,-6971.91,-243.015,17727.9,-10.8231,5.71624,-48.9789
312,0,-7338.22,-457.27,15963.4,-32.8655,48.856,-29.0248,-7279.55,-809.206,15727.6,-20.7921,32.3918,-30.5498
312,1,-7396.88,-1126.44,14672.9,-38.1858,58.3381,-22.0887,-7461.52,-1206.67,14931.4,-26.1127,42.8658,-22.6526
313,0,-7303.52,-1594.52,13317.8,-39.6494,58.5977,-14.8022,-7654.25,-2099.67,13487.8,-29.3444,44.5884,-14.0858
313,1,-6629.58,-1851.91,12004.6,-38.6129,56.1892,-8.24722,-7648.28,-2410.96,12762.3,-29.5427,43.8873,-9.2227
314,0,-5529.46,-1776.51,10836.2,-32.9729,48.7352,-1.72285,-6259.72,-2641.99,11206.1,-21.4639,33.7049,0.212906
314,1,-4863.84,-1622.08,10169.4,-25.3662,36.7232,-3.76503,-5588.08,-2549.83,10479.4,-17.0123,28.0489,2.10372
315,0,-4126.44,-1211.49,9603.17,-17.9272,25.1987,-2.89647,-4406.59,-1643.67,9502.64,-6.43351,12.6685,1.12809
315,1,-3210.67,-325.656,8918.43,-13.2624,13.6591,3.20091,-3864.25,-1072.62,9113.53,-1.96653,5.60989,2.69807
316,0,-2083.01,488.385,8358.18,-13.0945,3.78089,4.3598,-2424.21,118.449,8433.61,-1.44818,-8.42911,4.66456
316,1,-1391.05,861.902,8202.54,-14.9542,-3.42959,1.85989,-1715.46,605.726,8112.76,-1.76827,-14.3292,3.47571
317,0,-939.743,1118.08,8368.92,-16.1737,-8.35347,6.90516,-1320.42,894.22,8390.46,-3.44503,-20.5332,7.22536
317,1,-391.477,1261.74,8650.24,-16.9055,-9.49695,12.2254,-1036.7,1023.52,8537.72,-4.00915,-22.9878,10.8535
318,0,-111.338,1187.53,8914.8,-17.1646,-6.81418,8.73503,-301.708,791.298,8896.83,-5.39627,-19.924,10.7622
318,1,-401.009,1286.88,9204.5,-16.2348,-4.67995,1.89055,-90.9788,676.364,9123.1,-5.57929,-18.3842,8.33854
319,0,-623.683,1219.85,9441.53,-14.7257,-3.67382,-2.25596,-688.299,873.872,9411.59,-2.83552,-16.0367,2.72894
319,1,-492.018,1035.5,9621.09,-13.8263,1.92042,1.61559,-537.518,860.72,9524.13,-2.08841,-14.0245,3.97849
320,0,-730.215,950.5,9785.1,-13.4756,10.6246,-1.1278,-1028.28,635.672,9842.55,-1.99696,-2.43966,-0.502738
320,1,-1485.56,830.794,10235.2,-13.0488,15.1218,-2.05796,-1453.27,541.091,10056.8,-2.27132,1.73778,-2.77437
321,0,-1895,590.182,10450.7,-9.81726,16.5853,-0.792746,-2008.71,71.8522,10366.9,1.50893,3.58222,0.502854
321,1,-2138.01,288.515,10297.5,-6.53976,18.0182,0.167649,-2248.15,-174.771,10382.5,3.53655,4.60363,1.37197
322,0,-2197.88,146.05,10015,-4.64946,19.9237,1.73773,-2331.95,-274.132,9937.16,6.11268,7.2712,3.24684
322,1,-2284.06,196.32,9793.49,-3.62809,20.5183,2.60669,-2408.56,-239.423,9768.34,7.02743,8.0183,4.35973
323,0,-2276.89,277.724,9773.13,-2.45432,19.8171,2.19515,-2478,-166.4,9747.99,8.07922,7.57625,4.14636
323,1,-2178.73,260.97,9840.17,-1.26529,19.0702,1.2348,-2415.75,-134.076,9805.45,8.55183,7.11892,3.97866
324,0,-2124.86,335.184,9852.14,-0.243942,18.9482,1.15853,-2331.96,-104.149,9832.99,10.8383,6.64636,3.14029
324,1,-2005.15,450.105,9763.56,0.594481,18.689,3.36879,-2197.88,-27.537,9759.97,11.7683,6.29575,3.64325
325,0,-1867.48,543.48,9698.91,0.243932,19.4664,4.63412,-1954.88,221.452,9727.64,10.5946,7.22556,5.36578
325,1,-1895.01,676.356,9661.8,-0.350588,20.8079,2.53061,-1972.82,286.108,9689.34,10.1829,7.7439,4.93908
326,0,-1922.54,638.059,9649.83,-1.49385,22.6219,1.35673,-1965.64,318.427,9652.23,9.31407,9.49687,3.308
326,1,-1899.8,418.996,9759.96,-3.79563,25.8993,2.27129,-1924.94,272.942,9651.03,8.06408,11.4786,3.32315
327,0,-2009.93,268.155,9840.17,-6.23466,29.8931,3.49081,-2069.78,31.1365,9753.97,4.81723,16.4327,5.39624
327,1,-2124.85,203.509,9775.53,-9.34438,32.7896,2.95736,-2128.44,-46.6867,9798.27,3.1098,18.5213,5.8994
328,0,-2167.95,90.985,9630.68,-11.9206,34.6036,2.82012,-2209.84,-238.213,9528.94,-1.02114,20.8688,4.9848
328,1,-2155.98,17.9586,9418.8,-12.4543,35.9603,3.73471,-2236.18,-308.852,9412.81,-2.49999,21.9055,4.83231
329,0,-2182.31,22.744,9242.82,-12.2104,36.3262,4.25304,-2369.06,-318.428,9221.28,-1.87504,22.7896,5.92982
329,1,-2225.41,25.1393,9210.49,-12.1342,34.741,4.46646,-2488.77,-310.05,9160.22,-1.7378,22.4543,6.28049
330,0,-2185.91,20.3509,9212.89,-10.5336,31.2349,5.06095,-2413.36,-392.645,9239.22,0.015149,17.8661,7.01216
330,1,-2122.46,116.114,9248.8,-7.39344,28.2318,5.28963,-2336.74,-428.562,9258.38,1.57007,16.0823,7.34756
331,0,-2124.85,248.992,9404.42,-4.37512,26.2806,4.52748,-2275.69,-229.854,9460.68,6.09734,13.8721,6.5092
331,1,-2163.16,397.431,9739.6,-2.01228,24.5732,3.0336,-2324.77,-112.53,9636.66,7.86584,12.5763,5.57931
332,0,-2188.3,507.567,10036.5,-0.182994,23.0031,2.75914,-2382.23,87.3787,9988.59,10.5486,10.4117,5.04575
332,1,-2200.27,639.246,10153.8,0.472549,22.2104,2.43904,-2437.29,238.218,10126.3,11.4024,9.71037,5.03049
333,0,-2217.03,732.623,10292.7,0.823157,22.5762,2.17989,-2437.3,347.155,10295.1,11.7683,9.92377,3.96347
333,1,-2297.23,758.962,10552.4,1.46339,23.4756,3.14019,-2446.87,362.722,10351.3,11.8902,10.4116,3.78048
334,0,-2397.79,772.129,10783.5,1.82926,23.9482,4.11582,-2602.49,369.904,10765.5,12.439,11.5091,6.03647
334,1,-2487.57,811.632,10983.4,1.79879,24.6189,5.06094,-2642,337.584,10881.6,12.7134,11.9207,6.85975
335,0,-2555.81,784.103,11133,0.442143,25.9146,5.07623,-2681.5,447.709,11036.1,10.5946,14.1005,6.89025
335,1,-2618.06,806.844,11224,-2.28647,28.1554,4.58844,-2731.78,470.462,11118.7,9.42076,15.0915,6.6616
336,0,-2723.4,861.91,11368.9,-7.30161,31.2042,2.89642,-2822.76,525.524,11419.1,3.00338,18.384,4.61901
336,1,-2904.16,804.456,11540,-16.6764,35.3962,1.87503,-2906.56,639.247,11390.4,0.228694,19.9543,3.64331
337,0,-3177.09,676.367,11917.1,-28.4752,38.9023,3.53649,-3428.47,451.318,11894.4,-16.9656,24.6034,5.54868
337,1,-3596.07,447.726,12200.8,-38.7954,39.6494,3.96343,-3646.37,342.373,12162.5,-23.8567,26.2348,6.53962
338,0,-4005.48,260.974,12448.6,-49.2222,37.2105,3.62806,-4366.99,57.4749,12428.3,-37.4384,22.8508,5.41165
338,1,-4272.44,76.6219,12623.4,-59.0698,32.4697,4.90847,-4626.79,-76.6122,12532.4,-43.567,20.7927,5.09146
339,0,-4400.54,-82.5942,12725.2,-67.4997,26.86,7.10357,-4814.73,-306.447,12670.1,-53.9782,13.4912,7.77426
339,1,-4327.52,-180.759,12642.6,-71.7987,23.4605,8.27741,-4845.87,-489.609,12727.6,-58.5823,10.061,9.16156
340,0,-4252.1,-298.073,12615,-76.0364,20.1069,9.66458,-4523.86,-731.418,12577.9,-64.6034,4.52771,11.067
340,1,-4248.51,-409.404,12595.9,-78.3384,16.8294,11.7072,-4495.11,-835.575,12555.2,-66.8293,2.34759,12.1494
341,0,-4198.24,-636.847,12488.2,-80.3658,13.1556,12.6677,-4401.75,-1109.7,12324.2,-69.0091,-3.10949,13.4603
341,1,-4158.73,-1016.32,12537.2,-83.2926,9.72574,13.628,-4444.83,-1347.93,12312.2,-70.4726,-5.06097,13.9787
342,0,-4223.37,-1450.87,12582.7,-80.0155,5.79284,14.3597,-4425.68,-2245.72,12478.6,-68.0337,-9.83208,14.9847
342,1,-4218.58,-2343.88,12883.2,-66.586,6.12798,15.6097,-4460.4,-2765.29,12619.8,-62.424,-11.7683,15.625
343,0,-4061.77,-3215.38,13362,-44.5894,14.2222,19.2681,-3812.8,-4402.86,13326.1,-36.6171,-2.19562,19.5273
343,1,-4066.55,-3767.26,13625.4,-20.3058,28.0177,26.768,-3566.16,-4987.12,13540.4,-23.8265,3.96327,21.9817
344,0,-4199.42,-3994.72,13530.8,1.93515,43.6579,37.088,-3769.66,-5105.63,13447,6.32476,26.7519,35.6853
344,1,-4130,-4031.84,12819.8,13.7192,52.6065,44.9388,-3933.67,-5058.95,13248.3,19.2376,36.9968,42.6828
345,0,-3544.64,-3733.77,11650.2,25.1367,60.579,58.4903,-3612.87,-4572.95,11953.1,34.1304,48.2769,61.6455
345,1,-3002.35,-3418.93,10766.8,36.6917,66.4785,72.5452,-3290.84,-4322.74,11252.8,42.0578,53.5822,72.9418
346,0,-2185.94,-2682.74,9299.14,48.5209,69.0244,84.4203,-2091.39,-3098.16,8952.03,56.3408,57.3627,88.0939
346,1,-1127.71,-1376.72,7350.28,59.0698,67.9422,92.2864,-1552.65,-2399.01,7850.61,62.7896,58.2775,93.9329
347,0,-8.42321,126.834,5542.64,66.7071,64.0094,94.1464,-87.461,-104.261,5415.8,73.5818,53.2015,97.317
347,1,976.798,1358.67,4100.12,70.8383,58.4759,90.2289,497.988,867.886,4368.24,77.5915,50.3355,97.2867
348,0,1735.77,2278.05,3016.73,72.561,52.2106,83.6893,1369.44,2079.31,3148.43,80.4115,41.8907,87.7597
348,1,2262.5,3003.5,2164.39,71.0824,46.2655,75.5491,1715.44,2600.1,2582.16,81.4177,38.0641,83.2318
349,0,2584.53,3573.33,1668.77,65.8234,41.0216,65.7779,2215.81,3628.36,1771.75,76.1588,31.7839,71.8604
349,1,2706.64,3982.74,1588.55,61.3416,37.9269,58.8417,2328.36,4055.77,1501.17,73.0641,28.8568,65.8081
350,0,2606.09,4186.26,1741.77,54.101,34.0703,47.1347,2255.34,4383.77,1644.81,62.2414,22.4546,47.0741
350,1,2361.89,4201.83,2017.1,45.7016,30.8843,31.7842,2229,4467.58,1874.65,57.0885,19.7409,37.8508
351,0,1794.48,3939.67,2562.97,36.4181,29.6342,20.4425,1429.38,4071.36,2609.65,45.0006,18.0489,22.1806
351,1,1423.36,3409.37,3405.72,26.4333,28.0794,11.0827,1159.99,3736.16,3161.53,39.1465,16.9208,15.6251
352,0,784.13,2682.73,4492.68,17.8662,28.1707,2.83566,426.204,2651.63,4577.65,29.1011,16.5701,4.58894
352,1,-34.6848,1915.39,5590.42,12.4697,28.125,-0.792602,13.1765,2126.06,5193.01,24.6495,16.2958,0.320161
353,0,-632.05,1296.48,6568.46,11.4787,28.7347,-2.25605,-764.912,1043.92,6592.37,22.1495,16.5854,-1.08226
353,1,-1282.07,924.173,7404.04,13.445,28.9177,-2.33233,-1124.07,628.482,7204.14,22.1951,17.0732,-1.6006
354,0,-1818.38,836.774,8067.24,15.1829,28.1708,-0.884215,-1960.81,592.565,8042.08,25.2743,16.1891,0.594401
354,1,-2144,782.906,8534.12,15.0458,27.4695,0.0304651,-2355.89,585.383,8385.69,26.0823,15.7622,1.38719
355,0,-2370.25,651.229,8875.29,11.9514,26.997,0.411574,-2513.91,415.402,8790.29,21.7838,14.8629,1.76828
355,1,-2598.9,433.359,9018.95,8.59768,26.9817,-0.289596,-2613.27,287.308,8944.74,19.497,14.5732,1.47868
356,0,-2704.25,323.22,9022.55,7.2104,27.1037,-0.777428,-2953.23,-63.4302,9033.32,17.7897,14.6189,1.15855
356,1,-2737.77,231.044,8962.7,6.96647,26.3568,-1.49387,-2962.83,-158.018,8966.29,17.4543,14.4512,1.18902
357,0,-2776.08,213.084,8804.68,6.67685,24.9086,-3.44504,-3031.05,-153.229,8723.29,17.2256,12.6983,-1.61571
357,1,-2808.4,211.887,8553.3,5.44213,23.5519,-4.39023,-3050.21,-120.909,8577.23,16.9055,12.0884,-2.60671
358,0,-2729.39,239.419,8377.32,3.50618,22.3629,-5.06095,-2955.65,-128.089,8386.9,14.3599,10.6556,-3.03352
358,1,-2722.21,180.766,8212.12,1.8903,21.2958,-5.24391,-2954.44,-116.12,8303.09,13.6738,9.63418,-3.39938
359,0,-2740.16,132.879,8104.38,0.564072,20.8079,-4.64942,-2924.52,-156.818,8110.37,11.8903,8.4909,-3.01832
359,1,-2632.43,207.094,7935.59,-0.807875,20.1372,-3.62809,-2882.62,-222.658,7988.26,11.189,8.03355,-2.68294
360,0,-2523.49,317.228,7703.35,-1.66156,19.436,-3.03355,-2776.08,-27.5438,7615.97,9.14644,6.66165,-1.25007
360,1,-2416.95,477.637,7592.02,-3.06396,17.6678,-2.01224,-2679.11,82.598,7516.6,8.06405,5.80795,-0.24393
361,0,-2367.87,543.483,7524.98,-4.11582,15.5794,-0.884187,-2589.33,268.142,7450.76,7.14943,3.15561,1.03653
361,1,-2281.68,658.4,7429.21,-4.96948,13.7348,-0.33538,-2591.72,393.843,7401.68,6.25003,1.53967,1.72255
362,0,-2269.7,730.23,7463.92,-7.51513,13.247,0.121933,-2499.55,563.827,7497.44,3.61293,0.548817,2.10365
362,1,-2303.22,810.434,7688.97,-9.89322,12.5,2.34746,-2494.76,551.867,7643.48,1.89029,0.12196,2.10366
363,0,-2233.79,915.778,7785.94,-11.2957,12.2561,5.38098,-2446.88,639.247,7791.92,-0.0151648,-0.487778,6.4632
363,1,-2110.49,1122.87,7788.34,-11.9969,13.4908,3.23185,-2352.31,650.027,7814.67,-0.59451,-0.762191,7.92683
364,0,-2275.68,1164.78,7846.99,-14.2377,13.6738,-1.95101,-2542.63,839.158,7788.34,-3.03342,0.442012,-0.395931
364,1,-2355.89,1015.15,8169,-13.9787,12.0428,-0.0611385,-2682.7,876.279,7856.57,-4.07011,0.259176,-2.39333
365,0,-2270.9,1013.94,8441.95,-12.4238,10.3812,2.49993,-2522.3,647.642,8337.79,-0.853821,-2.77425,3.76496
365,1,-2144.01,1148.01,8765.16,-10.1373,8.53666,4.90844,-2457.65,596.155,8536.52,1.06703,-4.03962,5.96036
366,0,-2043.45,1277.3,8943.54,-6.49405,6.63117,4.13117,-2255.35,858.309,9008.16,5.68576,-6.11271,4.84762
366,1,-1963.25,1526.29,8998.61,-3.42998,5.38114,0.731852,-2184.71,1015.14,9124.3,7.63717,-7.13413,3.71955
367,0,-1976.41,1674.74,9103.95,-2.83536,5.85362,-2.16454,-2197.88,1337.15,9227.25,8.39936,-6.25005,-0.319934
367,1,-1980.01,1689.11,9132.68,-4.19201,6.69205,-2.5305,-2184.71,1411.38,9218.88,8.41465,-6.0061,-1.90547
368,0,-1923.74,1653.2,9048.89,-5.9603,8.62797,-3.35361,-2056.63,1392.23,9034.53,6.25011,-4.02449,-1.87501
368,1,-2009.93,1617.28,8848.98,-9.23767,10.7621,-4.66459,-2005.14,1370.68,8960.3,5.00003,-2.80491,-2.24083
369,0,-2141.61,1590.95,8658.64,-13.3383,11.875,-3.99395,-2317.57,1375.47,8684.98,-0.670457,-1.15861,-2.33232
369,1,-2199.07,1444.91,8617.93,-16.2652,12.0732,-3.20124,-2379.84,1296.46,8580.82,-3.36886,-0.670732,-1.95124
370,0,-2221.82,1286.89,8665.81,-16.8903,11.7073,-3.09451,-2512.71,884.677,8694.54,-4.34448,-1.8597,-2.10365
370,1,-2208.65,1231.82,8695.74,-16.2043,9.80192,-4.61883,-2529.48,828.39,8698.14,-4.6189,-2.53048,-2.51523
371,0,-2202.67,1261.74,8675.39,-15.9299,7.78971,-7.59134,-2464.83,952.887,8678.98,-4.03967,-5.13707,-6.23458
371,1,-2199.07,1284.49,8684.97,-17.2408,6.95124,-8.64328,-2443.28,1025.91,8647.86,-4.25303,-5.83842,-7.43903
372,0,-2208.65,1255.76,8766.37,-19.0091,7.78959,-8.26222,-2420.54,924.168,8746.01,-7.04255,-5.06102,-6.84455
372,1,-2223.02,1241.39,8913.61,-19.8628,9.02435,-9.16154,-2388.22,878.672,8860.94,-7.92683,-4.35978,-6.55489
373,0,-2298.43,1218.65,9069.23,-20.4116,9.96949,-12.3017,-2483.98,861.913,9066.83,-8.42986,-2.97262,-10.823
373,1,-2455.25,1171.96,9204.5,-21.0975,11.1432,-15.1981,-2551.02,846.351,9173.38,-8.68902,-2.42379,-13.0335
374,0,-2618.05,1061.83,9193.74,-21.7378,12.6981,-15.1677,-2780.85,681.159,9174.58,-9.67983,-0.548873,-13.9786
374,1,-2693.48,918.182,9118.32,-22.7134,14.6646,-12.1038,-2893.39,652.419,9119.52,-10.2744,0.655458,-13.75
375,0,-2716.22,758.968,9087.19,-23.8109,16.692,-9.37509,-2859.88,441.741,9077.62,-12.0578,3.04867,-8.70452
375,1,-2770.09,657.211,9051.28,-23.9025,17.9268,-8.50611,-2873.04,322.022,9054.87,-12.4848,4.28351,-6.89026
376,0,-2837.13,618.902,9065.64,-23.5671,18.6738,-8.18599,-3044.22,234.635,9050.08,-12.1189,5.27435,-6.60062
376,1,-2900.57,612.916,9117.12,-22.7897,18.4299,-7.74393,-3105.28,185.552,9050.08,-11.9207,5.50305,-6.52439
377,0,-2905.36,620.098,9181.76,-20.7775,17.3324,-6.98174,-3139.99,134.077,9136.27,-9.55805,4.43603,-5.19824
377,1,-2837.13,579.399,9230.84,-18.1251,16.2805,-6.72257,-3104.08,65.8432,9182.96,-7.68299,3.6738,-4.7561
378,0,-2768.9,604.534,9385.26,-15.0154,15.2135,-6.89024,-2952.06,55.0663,9415.19,-3.75018,2.30189,-5.16767
378,1,-2710.24,685.935,9573.21,-11.6922,15.3506,-7.27133,-2913.74,114.919,9497.8,-1.82931,1.79879,-5.4878
379,0,-2663.55,737.413,9663,-10.0763,16.9512,-7.33232,-2804.81,295.676,9622.29,0.792566,3.91758,-5.50305
379,1,-2688.69,689.533,9695.32,-10,19.1768,-8.41458,-2778.47,331.598,9659.41,1.53964,5.13717,-5.53354
380,0,-2747.34,573.416,9708.49,-9.55796,21.1737,-9.00914,-2875.43,153.237,9690.53,1.20428,7.68281,-7.10359
380,1,-2737.77,523.134,9649.83,-8.70431,22.2408,-8.81099,-2892.2,27.5367,9704.9,1.60059,9.0701,-7.16466
381,0,-2682.71,621.29,9500.2,-7.69821,23.7652,-7.94211,-2829.95,195.118,9490.63,2.95726,11.0517,-5.7775
381,1,-2663.55,677.558,9360.14,-8.21643,25.3048,-7.68293,-2828.75,287.303,9400.83,3.03355,11.9207,-5.36586
382,0,-2676.72,702.697,9180.57,-9.20729,26.814,-7.50001,-2838.33,339.975,9107.56,1.3263,14.4359,-5.54877
382,1,-2667.14,705.093,9038.12,-9.86279,27.3323,-6.84454,-2871.84,401.026,8986.64,0.564036,14.8323,-5.15246
383,0,-2579.76,754.171,8949.53,-9.81709,26.6464,-7.1951,-2742.56,373.498,8953.12,0.89937,13.7348,-5.64021
383,1,-2624.04,774.524,8844.18,-9.16162,25.4421,-7.46951,-2832.33,355.539,8844.19,1.2195,13.1403,-6.12804
384,0,-2612.08,843.953,8775.95,-8.46039,23.7958,-5.57936,-2877.83,487.214,8728.07,2.24081,11.3111,-3.88731
384,1,-2524.69,967.253,8777.14,-7.28664,21.7989,-4.93903,-2831.15,538.695,8732.85,2.69817,10.2287,-2.88111
385,0,-2445.68,1069.01,8785.52,-5.89944,19.68,-4.98476,-2758.12,605.73,8793.9,4.71027,7.50013,-3.03353
385,1,-2337.94,1142.03,8912.41,-5.32014,18.3689,-4.77135,-2724.6,699.103,8842.98,5.5945,6.09759,-3.29268
386,0,-2261.33,1201.89,9018.95,-4.87807,17.4238,-4.28356,-2515.12,827.192,9015.36,6.35668,4.67994,-2.25615
386,1,-2188.3,1255.76,9065.64,-4.98475,17.4695,-3.32321,-2414.55,865.504,9087.19,6.26526,4.63413,-1.6616
387,0,-2136.83,1297.66,9117.12,-6.52432,18.7957,-3.36889,-2260.13,934.932,9147.04,4.28363,6.3109,-1.85974
387,1,-2108.1,1318.01,9214.08,-8.06398,20.6707,-4.3902,-2194.29,997.183,9182.96,3.2927,7.28657,-2.27133
388,0,-2076.97,1300.05,9273.94,-10.0609,22.6219,-5.06096,-2249.35,981.624,9264.36,0.747068,9.7255,-3.20118
388,1,-2122.46,1203.09,9291.9,-12.1188,23.9329,-5.1372,-2258.93,946.908,9271.55,-0.289623,10.7165,-3.47561
389,0,-2194.28,1122.88,9276.33,-13.3536,23.9787,-4.1159,-2373.85,766.153,9215.28,-2.05785,10.7927,-2.14945
389,1,-2194.29,1059.44,9198.53,-13.3689,23.125,-2.72871,-2416.95,708.684,9223.66,-2.66768,10.747,-1.38721
390,0,-2206.26,1076.19,9070.44,-12.7439,22.2714,-1.64638,-2450.46,658.408,9059.67,-1.67688,9.6342,0.045668
390,1,-2266.11,1079.79,8956.71,-12.6067,21.3872,-1.40244,-2457.65,659.602,8998.61,-1.25001,9.08538,0.533535
391,0,-2370.26,969.657,8912.42,-12.6677,20.6555,-1.53963,-2621.64,565.036,8889.68,-1.31097,7.46959,0.137215
391,1,-2513.91,815.231,8899.25,-12.2714,19.1159,-1.1738,-2680.31,452.508,8886.08,-1.29573,6.90549,0
392,0,-2588.13,707.49,8878.9,-11.4482,16.9208,1.29562,-2832.33,343.572,8835.8,-0.0457914,3.8721,3.52117
392,1,-2589.33,659.604,8815.45,-10.7622,14.8781,4.86267,-2857.48,269.35,8811.86,0.503042,2.50002,5.56398
393,0,-2553.42,669.178,8756.79,-10.3811,13.75,6.84446,-2791.64,268.15,8763.98,1.00608,1.09762,8.00295
393,1,-2549.82,693.121,8757.99,-10.3049,12.6677,6.87502,-2761.71,323.215,8734.05,0.975619,0.259166,8.94816
394,0,-2530.67,681.151,8791.51,-9.93905,11.0062,6.7683,-2750.94,293.292,8743.62,1.3262,-1.52431,8.47564
394,1,-2437.3,696.712,8808.27,-9.31405,9.77138,7.95726,-2762.91,277.727,8795.1,1.6006,-2.5762,8.33842
395,0,-2315.2,790.082,8835.8,-8.64332,9.23782,9.77128,-2555.82,421.373,8810.66,2.88104,-3.61277,11.006
395,1,-2226.61,897.822,8872.91,-9.0701,8.68905,10.2896,-2398.99,501.584,8814.25,3.20123,-4.03963,12.0732
396,0,-2225.41,1010.35,8943.54,-9.54267,7.89638,9.93905,-2488.77,641.64,8962.69,2.25614,-5.3658,11.2653
396,1,-2105.71,1078.59,9103.94,-8.85675,6.21958,9.45124,-2452.86,695.515,8979.46,2.49998,-6.20425,10.8384
397,0,-2031.48,1095.35,9186.55,-6.63119,5.18296,9.0549,-2179.93,738.609,9151.83,5.51816,-7.30179,10.747
397,1,-1916.56,1171.96,9223.66,-5.51832,5.41157,8.09456,-2065,791.282,9148.25,6.55488,-7.48477,10.5031
398,0,-1903.39,1279.7,9232.04,-5.77742,6.32619,6.70737,-2144,984.008,9176.97,6.03661,-6.11287,8.14036
398,1,-1946.48,1314.42,9217.68,-6.23474,7.54569,5.60979,-2159.57,982.823,9208.1,5.44209,-5.625,7.28659
399,0,-1987.19,1291.67,9281.12,-6.7073,8.82618,4.17689,-2154.78,905.011,9317.03,5.07623,-4.00922,5.51838
399,1,-2003.95,1229.43,9375.69,-6.78354,10.4725,2.36287,-2154.78,849.943,9369.71,4.81708,-2.92686,4.61892
400,0,-2067.39,1218.65,9378.09,-6.99694,12.2408,1.34149,-2248.15,873.882,9364.92,4.66464,-0.686072,3.14031
400,1,-2094.93,1181.54,9212.9,-7.85058,14.4664,0.701241,-2261.32,896.628,9296.69,4.54269,0.274378,2.86585
401,0,-2190.69,1103.73,9066.85,-8.88716,15.9756,0.228673,-2348.71,724.254,9059.67,1.81415,3.47547,1.46348
401,1,-2293.64,967.263,8963.89,-9.92375,17.6524,-1.02129,-2394.2,661.997,8955.51,1.14328,4.69512,0.838421
402,0,-2421.73,817.625,8921.99,-12.195,17.9726,-2.68287,-2574.96,509.972,8912.42,-1.56999,4.84756,-0.990773
402,1,-2481.59,733.825,8908.83,-13.7805,18.064,-2.78965,-2626.44,434.549,8912.42,-2.72865,4.96951,-1.49391
403,0,-2489.97,675.167,8920.79,-13.8567,18.247,-1.95125,-2699.46,260.975,8923.19,-2.43904,5.09146,-0.365904
403,1,-2500.74,646.435,8954.31,-12.5458,17.3324,-1.11283,-2792.83,187.946,8947.13,-2.27134,5.03049,0.182919
404,0,-2482.79,681.149,9021.35,-10.3964,15.869,-0.22869,-2725.8,253.782,9033.32,0.716329,2.9879,1.24995
404,1,-2407.37,816.417,9069.23,-8.67384,14.3446,0.731674,-2692.28,281.319,9052.48,2.16461,2.17989,1.72256
405,0,-2323.58,918.174,9093.18,-7.74393,13.2775,1.66155,-2572.58,501.575,9118.31,3.23167,0.625069,3.18591
405,1,-2202.67,1064.22,9184.15,-6.09763,13.1402,2.07316,-2425.33,581.791,9151.83,3.99388,0.121951,3.97865
406,0,-2086.55,1174.35,9317.03,-5.01527,13.9481,1.40247,-2278.09,767.333,9324.21,5.83834,0.807896,3.58234
406,1,-2059.01,1233.01,9402.03,-5.04572,14.7104,0.74697,-2208.65,857.123,9362.53,6.4939,1.40242,2.91161
407,0,-2062.6,1219.85,9397.24,-5.71644,16.3414,0.0610003,-2179.92,841.563,9352.95,5.19823,3.58223,1.69212
407,1,-2060.21,1179.15,9329.01,-6.7835,18.2926,-0.624978,-2220.62,843.956,9340.98,4.43599,4.95424,1.29573
408,0,-2073.38,1157.6,9226.06,-7.80485,20.0152,-1.4329,-2236.18,790.089,9215.29,3.18603,7.28649,0.457354
408,1,-2103.31,1139.64,9137.47,-8.41462,20.8841,-2.33229,-2268.5,799.662,9124.3,2.5305,8.03354,-0.0914511
409,0,-2169.14,1102.53,9059.66,-8.21648,20.5793,-2.65244,-2419.33,701.506,9053.68,2.53048,7.77441,-0.823143
409,1,-2202.66,1077.39,8932.77,-7.51527,19.558,-2.86585,-2433.71,690.726,8981.85,2.69817,7.68293,-0.899397
410,0,-2207.45,1119.29,8807.07,-6.44821,18.5366,-3.20121,-2469.62,562.643,8913.62,3.47558,6.17385,-1.17377
410,1,-2250.55,1059.44,8823.83,-5.0153,17.9269,-4.25301,-2395.4,571.015,8954.31,4.81703,5.39636,-1.41768
411,0,-2318.78,998.384,8864.53,-7.51512,16.2043,-3.06409,-2570.17,650.023,8919.6,3.07936,3.42996,-1.2805
411,1,-2286.46,993.593,8880.09,-8.56707,15.625,-1.69211,-2584.54,666.785,8916.01,2.01221,2.48477,-0.579297
412,0,-2323.57,970.85,8875.31,-7.95735,16.2957,-1.40244,-2584.54,597.356,8902.84,3.21641,3.74994,0.228632
412,1,-2381.03,926.558,8880.09,-7.69818,16.6616,-1.9512,-2615.66,538.697,8904.04,3.79573,4.07013,0.0609918
413,0,-2440.89,893.038,9051.27,-8.46033,16.0671,-1.81404,-2706.64,526.724,9096.76,2.92687,3.15553,-0.0609756
413,1,-2373.85,788.894,9114.73,-8.17076,16.8597,-2.21034,-2529.48,462.084,9145.85,2.43903,2.91158,0.304862
414,0,-2418.14,921.76,9232.04,-7.48478,17.1494,-1.78356,-2565.38,641.637,9252.39,3.47556,3.97861,0.3811
414,1,-2402.58,1012.75,9234.44,-8.14021,17.4543,-0.167746,-2607.29,672.772,9210.5,4.02438,4.8323,0.594502
415,0,-2296.04,1024.72,9276.33,-8.82621,18.3384,2.72855,-2512.72,621.297,9238.02,2.53056,5.68595,4.42057
415,1,-2196.68,1085.77,9276.33,-8.18601,19.2378,4.22253,-2458.85,597.354,9309.85,2.0122,5.96037,6.21949
416,0,-2202.66,1213.86,9220.07,-6.60067,19.4055,4.22257,-2480.39,748.181,9270.35,3.93284,6.47864,5.99087
416,1,-2147.6,1346.73,9099.17,-6.15854,19.436,3.82624,-2446.88,893.033,9222.47,5.12193,6.60061,5.80793
417,0,-2136.82,1371.88,8996.22,-7.30178,19.3598,1.57022,-2342.73,978.029,9018.97,3.38423,6.81402,2.5916
417,1,-2244.56,1236.61,8944.74,-9.42066,19.6494,-0.701153,-2370.26,1013.94,8954.31,2.14942,6.75306,1.02136
418,0,-2315.19,1109.72,8913.61,-10.686,19.8933,-1.12805,-2540.24,750.594,8896.86,0.487868,7.07316,0.67074
418,1,-2377.44,963.671,8927.98,-11.4634,19.6189,-0.777453,-2568.98,592.568,8899.25,-0.320108,7.10367,0.838405
419,0,-2498.34,866.703,8935.16,-11.6006,18.5976,-0.304894,-2752.13,444.13,8899.25,-0.609749,5.83847,1.14328
419,1,-2533.07,793.68,8913.61,-10.9909,17.058,0.914588,-2865.86,369.906,8893.26,-0.396353,5.33537,1.40243
420,0,-2504.34,793.677,8913.61,-9.78663,15.2745,1.96643,-2774.88,373.495,8931.57,1.52431,2.65255,3.24688
420,1,-2501.94,778.116,8912.42,-8.17079,13.811,2.51523,-2738.97,324.417,8948.33,2.22561,1.67683,3.79574
421,0,-2493.56,760.159,8918.4,-7.46953,12.8811,3.26217,-2688.69,345.96,8906.43,3.71945,0.457368,4.32925
421,1,-2504.33,760.159,9003.39,-5.54886,12.4543,4.5274,-2675.52,391.451,8870.52,4.20732,-0.0304839,4.83231
422,0,-2491.17,703.898,8955.51,-3.5214,12.561,5.33535,-2705.45,387.861,8974.66,7.81997,-0.106705,6.76822
422,1,-2485.18,623.692,9045.29,-4.00911,11.3873,5.44208,-2754.53,401.028,8911.22,8.79574,-0.167681,7.19513
423,0,-2463.63,628.477,9090.78,-2.50008,10.0153,5.79267,-2670.74,241.821,9085.99,9.95422,-2.24077,7.40853
423,1,-2377.45,737.41,9024.95,-0.701269,9.42075,6.92069,-2577.36,280.118,9044.1,10.8689,-3.10975,8.00303
424,0,-2218.23,885.85,8959.1,-0.670717,10.3353,7.75913,-2312.81,573.4,8942.35,10.4878,-1.84457,9.4969
424,1,-2091.34,992.394,8977.06,-2.30177,11.5853,7.28661,-2242.17,635.662,8989.03,10.122,-0.945141,9.57319
425,0,-2027.89,1148.01,8851.37,-3.62802,11.4787,5.28971,-2260.13,817.612,8634.71,8.04887,-1.47863,7.25619
425,1,-1969.23,1095.35,9042.89,-1.89033,13.0335,2.27144,-2196.68,665.597,8871.7,7.05794,-1.70732,5.97564
426,0,-1881.85,1037.89,9154.23,-5.60958,12.9573,1.78352,-2148.8,776.911,9071.63,5.25922,-0.335422,3.50619
426,1,-1746.57,1162.38,9139.87,-8.44507,13.8414,2.66765,-2104.5,827.197,9148.24,3.55188,-0.198158,3.56704
427,0,-1695.1,1314.41,9048.89,-8.81098,15.5792,2.10369,-1877.06,978.025,9024.95,2.53052,3.4907,2.69822
427,1,-1711.85,1321.6,9053.67,-9.46644,18.4145,-0.457224,-1816,1061.83,8953.12,2.13415,5.44205,1.81405
428,0,-1740.58,1301.25,9082.4,-11.9816,20.3963,-2.2713,-1952.47,1015.14,9048.88,-0.899269,7.49993,-0.228582
428,1,-1790.86,1258.15,9056.07,-14.3445,21.3872,-2.8506,-1989.58,1024.72,9080.01,-3.03349,8.33841,-1.17377
429,0,-1819.59,1115.7,9005.79,-14.8781,22.1799,-3.56705,-1972.82,761.367,8974.67,-3.78047,9.05486,-2.0579
429,1,-1889.02,990.006,8949.53,-14.2378,22.6982,-4.28352,-1953.67,645.238,8914.81,-3.71952,9.49695,-2.54572
430,0,-1989.58,869.099,8913.61,-13.0183,22.5762,-4.40549,-2225.4,525.532,8870.52,-2.14945,9.57317,-2.71341
430,1,-2062.6,816.424,8841.79,-12.0427,21.7226,-3.97868,-2274.49,456.097,8872.91,-1.37196,9.39025,-2.65244
431,0,-2103.31,784.102,8791.51,-11.5092,20.5488,-3.33844,-2335.54,430.957,8798.69,-0.777459,8.09457,-1.936
431,1,-2154.78,736.219,8763.98,-10.9451,19.4665,-2.71343,-2335.54,383.074,8775.95,-0.335377,7.1799,-1.61586
432,0,-2201.47,694.32,8750.81,-10.5183,18.7958,-2.19514,-2449.26,350.751,8748.41,0.899345,5.82322,-0.213469
432,1,-2223.02,677.559,8734.05,-9.83235,17.7897,-1.29576,-2475.6,305.262,8792.7,1.1433,5.19818,0.426822
433,0,-2169.15,786.491,8740.03,-8.90247,16.6311,-0.487827,-2449.27,252.59,8799.89,2.378,3.70433,1.53959
433,1,-2203.86,802.058,8682.58,-7.28664,15.4726,-0.396338,-2420.54,332.79,8753.2,3.17072,2.86587,1.70732
434,0,-2171.54,744.599,8716.09,-7.51522,14.4513,0.0304698,-2467.22,374.692,8706.52,3.10976,1.46347,2.10364
434,1,-2097.32,831.981,8874.1,-5.36595,13.9329,-0.640212,-2258.94,360.328,8925.57,4.28349,0.533557,1.75307
435,0,-2106.9,805.651,8949.52,-6.81394,14.3445,0.0456939,-2345.11,508.762,8991.42,3.91772,1.28045,1.85975
435,1,-1962.05,932.536,9030.93,-8.61277,15.1982,1.78348,-2273.3,527.923,8969.88,2.8354,1.40245,2.36279
436,0,-1874.66,1035.49,9080.01,-9.19207,16.3872,1.93599,-2087.75,635.656,9085.99,1.96649,3.17066,3.50606
436,1,-1855.51,1118.09,9023.75,-9.67987,17.2561,1.82927,-2061.41,725.441,9047.69,1.81402,3.91768,3.56709
437,0,-1752.56,1218.65,9002.2,-10.5488,17.5305,1.00613,-1946.49,882.258,9014.17,0.640291,4.37499,2.83539
437,1,-1722.63,1334.76,8969.88,-11.1128,17.6524,0.0457586,-1898.6,946.906,9022.55,-0.121937,4.60366,2.30184
438,0,-1748.96,1357.51,8941.15,-11.6768,17.9573,-1.18899,-1942.89,985.213,8975.86,-0.701202,4.99999,0.457385
438,1,-1778.89,1351.53,8931.57,-12.561,18.2774,-2.25607,-1954.87,1035.49,8973.47,-0.990849,5.3506,-0.0762213
439,0,-1872.26,1278.51,8951.92,-13.6738,18.6738,-3.09449,-2064.99,919.378,8985.44,-2.63713,5.8384,-1.52433
439,1,-1954.86,1171.96,8962.69,-14.4664,18.6433,-3.56706,-2134.43,861.913,8977.06,-3.26219,6.1128,-1.82928
440,0,-2044.65,1065.42,9032.12,-14.314,18.186,-3.42989,-2288.85,659.61,9074.02,-3.20122,5.42686,-1.53964
440,1,-2179.92,934.94,9097.96,-13.2013,17.4543,-2.85063,-2383.43,550.668,9096.77,-2.75916,4.81709,-1.55488
441,0,-2234.99,849.944,9166.2,-11.4025,16.1129,-1.90552,-2503.13,428.566,9129.09,-0.289724,3.36895,-0.487847
441,1,-2237.38,818.818,9187.75,-10.4116,14.8171,-1.00612,-2494.76,414.196,9194.93,0.716455,2.92683,0.152429
442,0,-2243.37,839.167,9185.35,-10.1982,14.1464,0.259106,-2473.21,421.38,9180.57,1.06706,1.60066,1.70726
442,1,-2191.89,876.277,9209.29,-9.95428,13.9329,1.02133,-2431.31,417.788,9184.16,1.34146,1.20427,2.4695
443,0,-2155.98,943.313,9271.54,-9.37502,14.0854,1.89022,-2339.14,509.961,9278.72,1.9512,1.26524,3.79569
443,1,-2117.67,976.834,9289.5,-8.88721,14.0549,2.63718,-2341.53,559.045,9323.02,2.22561,1.32622,4.29878
444,0,-2056.62,1046.26,9285.91,-8.82622,13.9787,2.75915,-2279.28,679.949,9324.22,2.43902,1.20427,4.375
444,1,-1985.99,1110.91,9291.9,-8.70428,14.0092,2.60671,-2223.02,714.669,9319.43,2.63719,1.15854,4.29879
445,0,-1921.35,1125.27,9269.15,-8.65854,14.3902,2.24087,-2136.83,720.654,9289.5,2.72866,1.66157,3.85672
445,1,-1891.42,1139.64,9336.19,-8.42989,15.1982,1.17382,-2111.69,715.867,9279.93,2.60671,1.875,3.62805
446,0,-1893.81,1122.88,9390.06,-8.44512,16.4329,0.487819,-2032.68,785.295,9351.75,2.78963,3.49079,2.45431
446,1,-1892.62,1151.61,9255.99,-9.80178,17.7744,0.0914738,-2045.84,816.422,9307.46,2.72866,4.25304,1.70733
447,0,-1902.19,1167.17,9121.91,-11.9816,19.0244,-0.50303,-2076.97,829.591,9123.11,-0.198064,5.79263,1.26526
447,1,-1938.11,1107.32,9014.17,-13.1097,19.6951,-0.396352,-2104.5,847.547,9026.14,-1.7073,6.6006,0.884157
448,0,-1977.61,1022.33,8948.33,-13.8872,20.1372,0.0609622,-2161.96,683.551,8954.32,-2.85058,7.11889,1.57009
448,1,-2033.87,932.544,8913.61,-14.314,19.7866,-0.365834,-2207.45,598.552,8910.02,-3.39938,7.11891,1.92073
449,0,-2096.12,870.294,8917.2,-13.6586,18.7196,-1.14327,-2414.55,441.736,8901.64,-2.19517,5.42689,0.579319
449,1,-2140.42,781.71,8884.88,-12.6372,17.0885,-0.746974,-2448.07,392.649,8908.82,-1.72256,4.69513,0.350601
450,0,-2146.4,756.568,8819.04,-11.9208,15.7775,-2.02E-05,-2397.79,396.24,8817.85,-0.655527,2.89641,1.47862
450,1,-2123.66,817.618,8811.86,-11.4482,14.7561,0.868878,-2395.4,343.57,8765.17,-0.167688,2.22561,2.05792
451,0,-2066.2,870.291,8844.18,-10.9299,13.8263,2.28654,-2355.9,411.8,8833.4,0.198159,0.960412,3.46032
451,1,-2002.75,934.934,8886.08,-10.3354,13.0488,3.14023,-2309.21,462.08,8862.14,0.350608,0.594511,4.22255
452,0,-1972.82,1006.76,8947.13,-9.95428,12.1799,3.65852,-2179.93,656.005,8910.02,1.23473,-0.442035,5.01522
452,1,-1896.21,1078.59,9017.76,-9.05491,11.3567,3.91768,-2147.6,653.619,8993.82,1.75304,-0.975604,5.33537
453,0,-1793.26,1107.32,9028.54,-8.55184,10.8384,4.10061,-2060.21,746.987,9027.34,2.7896,-1.90546,5.45732
453,1,-1705.87,1164.78,9069.23,-8.65853,11.189,3.59758,-2001.55,792.481,9005.79,2.83538,-2.0122,5.30489
454,0,-1656.79,1218.65,9097.96,-9.26828,12.2561,2.50003,-1887.83,934.931,9047.69,2.24087,-0.442128,4.10065
454,1,-1675.94,1273.71,9095.57,-9.77133,13.6585,1.41771,-1810.02,952.893,9103.95,1.6616,0.289626,3.35367
455,0,-1735.79,1302.45,9053.67,-10.7012,14.8018,0.426856,-1910.57,975.636,9041.71,0.74698,1.78349,2.08846
455,1,-1784.88,1289.28,9051.28,-11.3415,15.1067,-1.18898,-1963.24,946.908,9020.16,0.396345,2.34756,1.20429
456,0,-1799.24,1258.15,9119.51,-11.2805,14.8018,-2.69813,-2029.08,872.689,9121.9,0.411584,2.10367,-0.975538
456,1,-1854.31,1221.04,9184.16,-10.625,14.2836,-3.2317,-2060.21,830.789,9141.06,0.56402,1.92074,-1.50915
457,0,-1847.13,1171.96,9234.43,-10.4268,14.2378,-3.42987,-2031.48,816.423,9215.28,0.884137,1.75305,-1.60061
457,1,-1817.2,1155.2,9300.27,-10.2439,14.7713,-3.24696,-2020.71,778.117,9227.25,1.02134,1.61586,-1.87499
458,0,-1921.34,1107.32,9375.69,-10.0915,14.939,-4.35972,-2225.4,676.365,9308.65,1.44816,2.31705,-3.32312
458,1,-1883.04,1102.53,9441.53,-9.19211,15.0305,-3.47566,-2300.83,628.479,9419.98,1.81402,1.87503,-3.09454
459,0,-1872.27,1091.76,9457.1,-8.35368,15.7469,-3.50608,-2112.89,715.863,9447.52,2.89631,3.2469,-2.54574
459,1,-1934.51,1083.38,9439.14,-8.90242,16.8445,-4.89325,-2085.35,782.903,9404.43,2.95733,4.14633,-2.66768
460,0,-1996.76,1046.27,9364.92,-10.1067,18.3689,-5.71645,-2115.28,748.19,9264.37,1.63114,5.6402,-3.93289
460,1,-1917.76,1246.17,9252.4,-7.27146,19.1006,-8.32309,-2229,711.079,9157.82,0.762212,6.32621,-4.42073
461,0,-2134.42,882.279,9132.69,-8.68894,21.8597,-11.3414,-2573.76,725.442,8956.71,2.11885,9.74074,-9.61873
461,1,-2173.94,568.629,9267.95,-12.4847,21.8293,-8.64342,-2705.45,452.514,9022.54,-0.213316,10.5793,-10.8842
462,0,-2170.34,501.586,9323.02,-13.1555,21.4329,-5.76226,-2535.47,186.754,9254.78,-1.89022,9.1159,-5.28982
462,1,-2260.12,591.365,9208.1,-11.5854,20.808,-3.99395,-2504.33,68.2369,9278.73,-1.81404,8.20124,-3.29269
463,0,-2252.94,679.951,9130.29,-10.6403,20.3354,-3.41464,-2467.23,306.449,9165.01,0.21335,7.45429,-1.95126
463,1,-2165.56,742.201,9163.8,-9.93905,19.1464,-2.98782,-2476.8,360.328,9113.53,0.945119,6.66161,-1.70731
464,0,-2097.32,785.297,9182.96,-8.42993,18.4147,-2.08844,-2334.35,403.421,9129.09,2.94201,5.77746,-0.167737
464,1,-2072.18,787.693,9169.79,-7.80489,18.064,-0.823205,-2302.02,392.65,9168.59,3.64329,5.54878,0.503044
465,0,-1989.58,910.99,9165,-6.92076,17.2561,-0.0762334,-2203.87,537.493,9143.46,4.71033,4.49699,1.64631
465,1,-1984.79,1013.94,9150.64,-4.63422,17.1037,-0.121945,-2205.06,606.93,9038.11,5.42682,4.19207,1.92074
466,0,-1927.33,1012.75,9185.35,-3.00308,17.3628,-1.41764,-2130.84,727.833,9100.36,8.47552,5.12192,0.518339
466,1,-1844.73,1030.7,9176.98,-3.91764,16.2043,-1.73781,-2120.07,748.189,9142.26,7.8964,4.87807,-0.533517
467,0,-1774.11,1021.13,9133.88,-4.64938,16.5701,-1.38721,-2003.95,745.794,9084.8,6.82929,4.37501,0.457278
467,1,-1742.98,1065.42,9179.37,-4.66464,17.1037,-1.41768,-1941.7,675.167,9114.72,6.37196,4.40549,0.716468
468,0,-1741.78,1150.41,9184.16,-4.81707,17.3323,-1.32622,-1988.38,816.417,9167.4,6.32622,4.86279,0.487811
468,1,-1725.02,1180.34,9211.69,-5.1067,17.1951,-1.41768,-1977.61,864.307,9226.05,6.25001,4.77135,0.51829
469,0,-1733.4,1164.78,9175.78,-5.41158,17.4543,-2.51521,-1917.76,811.636,9230.84,5.76221,5.24389,-1.09751
469,1,-1734.6,1133.66,9170.99,-6.40241,18.567,-3.50608,-1897.4,852.334,9159.02,5.38111,5.60975,-2.10364
470,0,-1765.72,1107.32,9153.03,-8.21642,20.0457,-3.71951,-1914.16,806.848,9136.27,3.15556,7.36275,-2.07318
470,1,-1841.14,1069.01,9088.39,-9.35974,21.4786,-3.81097,-1945.29,799.663,9096.77,2.02745,8.29268,-2.0122
471,0,-1912.97,986.413,8979.46,-10.1219,22.2409,-3.93293,-2133.23,646.439,8943.54,1.02137,9.51217,-2.10366
471,1,-1954.86,901.419,8877.7,-10.5335,22.2409,-3.59757,-2193.09,568.624,8896.85,0.457326,9.55794,-2.04269
472,0,-1991.97,845.154,8825.03,-10.5183,21.6464,-3.1555,-2246.96,477.646,8771.16,0.685966,8.85673,-1.18905
472,1,-2041.06,797.27,8783.13,-10.1677,20.686,-3.00305,-2246.96,442.928,8786.72,0.518302,8.52135,-1.05183
473,0,-2043.45,778.116,8783.13,-9.64941,19.6037,-3.125,-2244.56,408.212,8769.96,1.38717,7.33236,-1.41767
473,1,-1985.99,786.495,8865.73,-9.32928,19.1921,-3.30792,-2191.89,386.664,8808.27,1.79878,6.72257,-1.52439
474,0,-1964.44,818.816,9021.35,-8.81099,19.0092,-3.81096,-2184.71,408.211,9033.32,2.42376,6.32623,-2.34754
474,1,-1991.97,828.394,9121.91,-7.83539,18.5976,-4.10061,-2191.89,416.591,9124.3,2.75914,6.08232,-2.8506
475,0,-1944.09,936.13,9105.15,-6.00615,18.0183,-4.14634,-2103.31,499.188,9059.66,5.45724,5.25917,-2.92683
475,1,-1996.76,918.178,9107.54,-4.84758,19.0548,-5.56398,-2051.83,559.045,9017.76,7.39326,5.41157,-3.61279
476,0,-2020.71,835.578,9119.51,-6.8292,19.7713,-5.03052,-2177.52,483.631,9090.78,4.22267,6.7835,-3.2927
476,1,-1977.61,857.123,9121.91,-8.15547,20.3811,-3.50614,-2150,483.628,9153.03,2.95732,7.28659,-2.56099
477,0,-1999.16,910.992,9071.63,-7.30187,20.3201,-4.16155,-2208.65,442.929,9068.04,3.70425,7.36281,-2.6067
477,1,-2075.77,884.659,9008.19,-5.67077,19.9695,-5.92984,-2221.82,451.306,9035.72,4.74083,7.37805,-3.18596
478,0,-2079.36,814.03,8935.16,-6.06705,19.4208,-5.94514,-2270.9,488.416,8924.39,4.90854,7.05794,-3.81096
478,1,-2037.47,809.24,8898.05,-6.89023,19.314,-5.28965,-2263.72,487.22,8854.96,4.42075,6.7683,-3.6433
479,0,-2039.86,810.437,8866.93,-7.16463,19.6951,-4.52746,-2194.29,451.308,8865.73,3.94818,7.02743,-2.53052
479,1,-2069.79,784.102,8894.46,-7.56097,19.4512,-4.05489,-2234.99,462.08,8880.09,3.75,7.17988,-2.24085
480,0,-2070.98,775.721,8927.98,-7.50001,18.5061,-3.73476,-2226.61,386.666,8943.54,3.81097,5.77748,-1.84453
480,1,-2021.9,750.583,8938.75,-6.52442,17.9116,-3.47562,-2209.85,326.81,8942.34,4.11585,5.21342,-1.66159
481,0,-2002.75,817.618,8979.45,-5.53356,17.1189,-3.09452,-2207.45,463.274,8974.66,5.39631,4.35978,-1.18904
481,1,-1954.87,939.721,8996.21,-5.4878,16.7073,-3.21646,-2178.72,562.636,9023.74,5.92988,4.17683,-1.12805
482,0,-1939.3,997.184,9001,-6.64631,17.0579,-3.88718,-2133.23,665.586,8996.21,4.69516,4.16159,-1.84449
482,1,-1903.39,1023.52,9041.7,-8.01827,17.9725,-4.35975,-2081.76,741.004,8993.82,3.6738,4.69511,-2.25609
483,0,-1902.19,1043.87,9108.74,-9.22254,19.4664,-4.99999,-2082.96,724.247,9062.05,2.19516,6.43288,-3.18595
483,1,-1930.92,1037.89,9126.7,-10.4268,20.7469,-5.41158,-2105.7,709.881,9087.19,1.6311,7.27134,-3.33842
484,0,-1975.22,987.61,9076.42,-11.2347,21.311,-5.625,-2226.6,669.181,9066.84,-0.106658,8.29266,-3.79572
484,1,-2026.69,900.222,9045.29,-11.7683,21.2653,-6.08231,-2232.59,623.69,9056.07,-0.807923,8.68902,-3.96342
485,0,-2043.45,865.504,9029.73,-12.0732,20.7165,-6.40244,-2293.64,508.771,8983.05,-0.807929,8.07929,-4.37499
485,1,-2091.33,847.548,8986.64,-11.7226,20.1829,-6.09757,-2321.18,506.373,8962.69,-0.655492,7.72867,-4.55793
486,0,-2128.44,828.394,8951.92,-11.3567,19.5579,-5.061,-2358.29,416.594,8942.34,-0.0609912,6.85978,-3.29272
486,1,-2157.18,809.241,8966.29,-10.8232,18.75,-4.34453,-2406.17,411.802,8956.71,0.213412,6.49391,-2.68293
487,0,-2160.77,808.043,9027.34,-10.3049,17.8049,-3.88721,-2400.19,442.927,9010.58,0.792668,5.18297,-2.11892
487,1,-2155.98,805.649,9077.62,-9.63417,16.4177,-2.91161,-2401.38,442.928,9047.69,1.06707,4.43599,-1.67684
488,0,-2108.1,840.364,9156.62,-8.30796,15.2592,-1.7988,-2328.36,436.942,9148.24,2.60667,2.7287,-0.350645
488,1,-2045.85,899.021,9283.51,-6.28054,14.3141,-1.02136,-2292.45,414.198,9211.69,3.61279,1.82928,0.426819
489,0,-1987.19,964.862,9386.47,-4.58845,13.9025,-0.670737,-2227.81,557.845,9348.16,6.93589,1.5244,0.960355
489,1,-1918.95,1035.49,9405.62,-4.07013,14.1159,-0.472565,-2196.68,654.813,9429.56,8.21646,1.55488,1.09756
490,0,-1879.45,1103.73,9390.06,-4.57316,14.0244,0.213397,-2038.67,803.251,9360.13,7.33235,1.53964,2.10363
490,1,-1800.44,1163.58,9331.4,-4.93902,15.0152,0.243908,-1933.32,826,9318.23,6.87501,2.16462,2.75914
